Time t / s,Voltage U_B1 / V
0,0
0.0005,-0.0015
0.001,0
0.0015,0
0.002,0
0.0025,-0.0015
0.003,-0.0015
0.0035,-0.0015
0.004,-0.0015
0.0045,-0.0015
0.005,-0.0015
0.0055,-0.0015
0.006,-0.0015
0.0065,-0.0015
0.007,-0.0015
0.0075,-0.003
0.008,-0.003
0.0085,-0.0015
0.009,-0.0015
0.0095,-0.0015
0.01,-0.003
0.0105,-0.003
0.011,-0.003
0.0115,-0.0045
0.012,-0.003
0.0125,-0.0045
0.013,-0.0045
0.0135,-0.0045
0.014,-0.003
0.0145,-0.0045
0.015,-0.0045
0.0155,-0.0045
0.016,-0.0045
0.0165,-0.0045
0.017,-0.0045
0.0175,-0.006
0.018,-0.0045
0.0185,-0.006
0.019,-0.006
0.0195,-0.006
0.02,-0.006
0.0205,-0.006
0.021,-0.006
0.0215,-0.0045
0.022,-0.006
0.0225,-0.006
0.023,-0.006
0.0235,-0.006
0.024,-0.006
0.0245,-0.006
0.025,-0.006
0.0255,-0.006
0.026,-0.0075
0.0265,-0.0075
0.027,-0.006
0.0275,-0.0075
0.028,-0.006
0.0285,-0.006
0.029,-0.006
0.0295,-0.0075
0.03,-0.006
0.0305,-0.006
0.031,-0.006
0.0315,-0.006
0.032,-0.006
0.0325,-0.006
0.033,-0.006
0.0335,-0.0045
0.034,-0.006
0.0345,-0.006
0.035,-0.006
0.0355,-0.0045
0.036,-0.006
0.0365,-0.0045
0.037,-0.006
0.0375,-0.006
0.038,-0.0045
0.0385,-0.006
0.039,-0.006
0.0395,-0.006
0.04,-0.0045
0.0405,-0.0045
0.041,-0.006
0.0415,-0.006
0.042,-0.006
0.0425,-0.0045
0.043,-0.0045
0.0435,-0.0045
0.044,-0.0045
0.0445,-0.0045
0.045,-0.0045
0.0455,-0.0045
0.046,-0.0045
0.0465,-0.0045
0.047,-0.0045
0.0475,-0.0045
0.048,-0.0045
0.0485,-0.0045
0.049,-0.0045
0.0495,-0.0045
0.05,-0.0045
0.0505,-0.003
0.051,-0.003
0.0515,-0.003
0.052,-0.003
0.0525,-0.003
0.053,-0.0045
0.0535,-0.0045
0.054,-0.003
0.0545,-0.0015
0.055,-0.0015
0.0555,-0.003
0.056,-0.0015
0.0565,-0.0015
0.057,-0.0015
0.0575,-0.0015
0.058,-0.0015
0.0585,-0.0015
0.059,-0.003
0.0595,-0.0015
0.06,0
0.0605,0
0.061,-0.0015
0.0615,-0.0015
0.062,0
0.0625,-0.0015
0.063,0
0.0635,0
0.064,0
0.0645,0
0.065,0
0.0655,0
0.066,0
0.0665,0
0.067,0
0.0675,0
0.068,0
0.0685,0
0.069,0
0.0695,0
0.07,0
0.0705,0.0015
0.071,0
0.0715,0
0.072,0
0.0725,0.0015
0.073,0.0015
0.0735,0.0015
0.074,0.0015
0.0745,0
0.075,0.0015
0.0755,0.0015
0.076,0.0015
0.0765,0.0015
0.077,0.0015
0.0775,0.0015
0.078,0.0015
0.0785,0
0.079,0.0015
0.0795,0.0015
0.08,0.0015
0.0805,0.0015
0.081,0.0015
0.0815,0
0.082,0
0.0825,0
0.083,0
0.0835,0
0.084,0
0.0845,0.0015
0.085,0.0015
0.0855,0.0015
0.086,0.0015
0.0865,0
0.087,0
0.0875,0
0.088,0
0.0885,0
0.089,0
0.0895,0
0.09,0
0.0905,0
0.091,0
0.0915,0
0.092,0
0.0925,0
0.093,0
0.0935,0
0.094,0
0.0945,-0.0015
0.095,0
0.0955,0
0.096,-0.0015
0.0965,0
0.097,0
0.0975,0
0.098,-0.0015
0.0985,0
0.099,0
0.0995,0
0.1,-0.0015
0.1005,0
0.101,-0.0015
0.1015,-0.0015
0.102,-0.0015
0.1025,-0.0015
0.103,-0.0015
0.1035,-0.0015
0.104,-0.0015
0.1045,-0.0015
0.105,-0.0015
0.1055,-0.0015
0.106,-0.0015
0.1065,-0.0015
0.107,-0.0015
0.1075,-0.0015
0.108,-0.0015
0.1085,-0.003
0.109,-0.003
0.1095,-0.0015
0.11,-0.0015
0.1105,-0.003
0.111,-0.0015
0.1115,-0.0015
0.112,-0.0015
0.1125,-0.0015
0.113,-0.0015
0.1135,-0.0015
0.114,-0.0015
0.1145,-0.0015
0.115,-0.003
0.1155,-0.0015
0.116,-0.0015
0.1165,-0.0015
0.117,-0.003
0.1175,-0.0015
0.118,-0.0015
0.1185,-0.003
0.119,-0.003
0.1195,-0.003
0.12,-0.003
0.1205,-0.0015
0.121,-0.003
0.1215,-0.003
0.122,-0.003
0.1225,-0.003
0.123,-0.003
0.1235,-0.003
0.124,-0.003
0.1245,-0.0015
0.125,-0.0015
0.1255,-0.003
0.126,-0.0015
0.1265,-0.003
0.127,-0.003
0.1275,-0.003
0.128,-0.003
0.1285,-0.003
0.129,-0.003
0.1295,-0.0045
0.13,-0.0015
0.1305,-0.003
0.131,-0.003
0.1315,-0.003
0.132,-0.0015
0.1325,-0.0015
0.133,-0.003
0.1335,-0.003
0.134,-0.003
0.1345,-0.003
0.135,-0.003
0.1355,-0.0015
0.136,-0.0015
0.1365,-0.0015
0.137,-0.0015
0.1375,-0.0015
0.138,-0.0015
0.1385,-0.003
0.139,-0.003
0.1395,-0.003
0.14,-0.0015
0.1405,-0.0015
0.141,-0.0015
0.1415,-0.0015
0.142,-0.0015
0.1425,-0.0015
0.143,-0.0015
0.1435,0
0.144,-0.0015
0.1445,-0.0015
0.145,-0.0015
0.1455,-0.0015
0.146,-0.0015
0.1465,0
0.147,0
0.1475,0
0.148,0
0.1485,0
0.149,0
0.1495,0
0.15,0
0.1505,0
0.151,0
0.1515,0
0.152,0
0.1525,0
0.153,0
0.1535,0
0.154,0
0.1545,0
0.155,0.0015
0.1555,0
0.156,0.0015
0.1565,0.0015
0.157,0.0015
0.1575,0.0015
0.158,0.0015
0.1585,0.0015
0.159,0
0.1595,0.0015
0.16,0
0.1605,0.0015
0.161,0.0015
0.1615,0.003
0.162,0.0015
0.1625,0.003
0.163,0.0015
0.1635,0.0015
0.164,0.0015
0.1645,0.0015
0.165,0.0015
0.1655,0.0015
0.166,0.0015
0.1665,0.0015
0.167,0.0015
0.1675,0.0015
0.168,0.0015
0.1685,0.0015
0.169,0.0015
0.1695,0.0015
0.17,0.0015
0.1705,0.0015
0.171,0.0015
0.1715,0.0015
0.172,0.0015
0.1725,0.003
0.173,0.0015
0.1735,0.0015
0.174,0.0015
0.1745,0.0015
0.175,0.0015
0.1755,0.0015
0.176,0.0015
0.1765,0.0015
0.177,0.0015
0.1775,0.0015
0.178,0.0015
0.1785,0.003
0.179,0.0015
0.1795,0.0015
0.18,0.0015
0.1805,0.0015
0.181,0.0015
0.1815,0.0015
0.182,0.0015
0.1825,0.0015
0.183,0.0015
0.1835,0.0015
0.184,0.0015
0.1845,0.0015
0.185,0.0015
0.1855,0.0015
0.186,0.0015
0.1865,0.0015
0.187,0.0015
0.1875,0
0.188,0.0015
0.1885,0.0015
0.189,0.0015
0.1895,0.0015
0.19,0.0015
0.1905,0.0015
0.191,0.003
0.1915,0.0015
0.192,0.0015
0.1925,0.0015
0.193,0.0015
0.1935,0.0015
0.194,0.0015
0.1945,0.0015
0.195,0
0.1955,0.0015
0.196,0.0015
0.1965,0
0.197,0.0015
0.1975,0.0015
0.198,0
0.1985,0.0015
0.199,0
0.1995,0
0.2,0
0.2005,0.0015
0.201,0.0015
0.2015,0
0.202,0.0015
0.2025,0
0.203,0.0015
0.2035,0.0015
0.204,0.0015
0.2045,0
0.205,0
0.2055,0
0.206,0.0015
0.2065,0
0.207,0
0.2075,0
0.208,0
0.2085,0
0.209,0
0.2095,0
0.21,0
0.2105,0
0.211,0
0.2115,0
0.212,0
0.2125,0
0.213,0
0.2135,-0.0015
0.214,0
0.2145,0
0.215,0
0.2155,0
0.216,0
0.2165,0
0.217,-0.0015
0.2175,-0.0015
0.218,-0.0015
0.2185,-0.0015
0.219,0
0.2195,0
0.22,0
0.2205,0
0.221,-0.0015
0.2215,0
0.222,-0.0015
0.2225,-0.0015
0.223,-0.0015
0.2235,-0.0015
0.224,-0.0015
0.2245,-0.0015
0.225,-0.0015
0.2255,-0.003
0.226,-0.0015
0.2265,-0.0015
0.227,-0.0015
0.2275,-0.0015
0.228,-0.0015
0.2285,-0.003
0.229,-0.0015
0.2295,-0.003
0.23,-0.003
0.2305,-0.0015
0.231,-0.0015
0.2315,-0.0015
0.232,-0.0015
0.2325,-0.0015
0.233,-0.003
0.2335,-0.0015
0.234,-0.0015
0.2345,-0.0015
0.235,-0.0015
0.2355,-0.0015
0.236,-0.003
0.2365,-0.0015
0.237,-0.0015
0.2375,-0.0015
0.238,-0.0015
0.2385,-0.0015
0.239,-0.0015
0.2395,0
0.24,-0.0015
0.2405,-0.0015
0.241,-0.0015
0.2415,0
0.242,-0.0015
0.2425,0
0.243,0
0.2435,0
0.244,0
0.2445,0
0.245,0
0.2455,0
0.246,0
0.2465,-0.0015
0.247,0
0.2475,0
0.248,-0.0015
0.2485,0
0.249,0
0.2495,0
0.25,0
0.2505,0
0.251,0
0.2515,0
0.252,0
0.2525,0
0.253,0
0.2535,-0.0015
0.254,-0.0015
0.2545,0
0.255,0
0.2555,0
0.256,0
0.2565,0
0.257,0
0.2575,0
0.258,0
0.2585,0
0.259,0
0.2595,0
0.26,0
0.2605,0
0.261,0
0.2615,0
0.262,0
0.2625,-0.0015
0.263,-0.0015
0.2635,0
0.264,0
0.2645,-0.0015
0.265,-0.0015
0.2655,0
0.266,0
0.2665,0
0.267,0
0.2675,0
0.268,0
0.2685,0
0.269,0
0.2695,0
0.27,0
0.2705,0
0.271,-0.0015
0.2715,0
0.272,0
0.2725,-0.0015
0.273,0
0.2735,0
0.274,0
0.2745,0
0.275,0
0.2755,-0.0015
0.276,0
0.2765,0
0.277,0
0.2775,0
0.278,0
0.2785,0
0.279,0
0.2795,0
0.28,0
0.2805,0
0.281,0
0.2815,0
0.282,0
0.2825,0
0.283,0
0.2835,0
0.284,0
0.2845,0
0.285,0
0.2855,0
0.286,0
0.2865,0
0.287,0
0.2875,0
0.288,0
0.2885,0
0.289,0
0.2895,0.0015
0.29,0
0.2905,0
0.291,0
0.2915,0.0015
0.292,0
0.2925,0
0.293,0
0.2935,0
0.294,0
0.2945,0.0015
0.295,0
0.2955,0
0.296,0
0.2965,0.0015
0.297,0
0.2975,0.0015
0.298,0.0015
0.2985,0
0.299,0
0.2995,0.0015
0.3,0.0015
0.3005,0.0015
0.301,0.0015
0.3015,0
0.302,0.0015
0.3025,0
0.303,0.0015
0.3035,0.0015
0.304,0
0.3045,0.0015
0.305,0.0015
0.3055,0
0.306,0
0.3065,0
0.307,0
0.3075,0
0.308,0
0.3085,0.0015
0.309,0
0.3095,0
0.31,0
0.3105,0.0015
0.311,0.0015
0.3115,0
0.312,0
0.3125,0.0015
0.313,0.0015
0.3135,0.0015
0.314,0.0015
0.3145,0.0015
0.315,0.0015
0.3155,0
0.316,0
0.3165,0
0.317,0
0.3175,0
0.318,0
0.3185,0.0015
0.319,0
0.3195,0
0.32,0
0.3205,0
0.321,0
0.3215,0.0015
0.322,0
0.3225,0.0015
0.323,0.0015
0.3235,0
0.324,0
0.3245,0
0.325,0.0015
0.3255,0.0015
0.326,0
0.3265,0.0015
0.327,0.0015
0.3275,0.0015
0.328,0.0015
0.3285,0
0.329,0.0015
0.3295,0.0015
0.33,0.0015
0.3305,0.0015
0.331,0.0015
0.3315,0.0015
0.332,0.0015
0.3325,0.0015
0.333,0.0015
0.3335,0.0015
0.334,0.0015
0.3345,0
0.335,0
0.3355,0.0015
0.336,0
0.3365,0
0.337,0.0015
0.3375,0.0015
0.338,0
0.3385,0.0015
0.339,0.0015
0.3395,0.0015
0.34,0.0015
0.3405,0.0015
0.341,0.0015
0.3415,0
0.342,0.0015
0.3425,0.0015
0.343,0.0015
0.3435,0.0015
0.344,0
0.3445,0
0.345,0.0015
0.3455,0.0015
0.346,0
0.3465,0.0015
0.347,0
0.3475,0.0015
0.348,0.0015
0.3485,0
0.349,0.0015
0.3495,0
0.35,0.0015
0.3505,0
0.351,0.0015
0.3515,0.0015
0.352,0.0015
0.3525,0
0.353,0.0015
0.3535,0.0015
0.354,0.0015
0.3545,0.0015
0.355,0
0.3555,0.0015
0.356,0
0.3565,0
0.357,0.0015
0.3575,0.0015
0.358,0
0.3585,0
0.359,0.0015
0.3595,0.0015
0.36,0
0.3605,0.0015
0.361,0
0.3615,0
0.362,0.0015
0.3625,0
0.363,0
0.3635,0
0.364,0
0.3645,0
0.365,0
0.3655,0
0.366,0
0.3665,0
0.367,0
0.3675,0
0.368,0
0.3685,0
0.369,0
0.3695,0
0.37,-0.0015
0.3705,0
0.371,0
0.3715,0
0.372,0
0.3725,0
0.373,0
0.3735,0
0.374,0
0.3745,-0.0015
0.375,0
0.3755,-0.0015
0.376,0
0.3765,0
0.377,0
0.3775,0
0.378,0
0.3785,0
0.379,0
0.3795,0
0.38,0
0.3805,0
0.381,0
0.3815,0
0.382,0
0.3825,0
0.383,0
0.3835,0
0.384,0
0.3845,0
0.385,-0.0015
0.3855,0.0015
0.386,0
0.3865,0
0.387,0
0.3875,0
0.388,0
0.3885,0
0.389,0
0.3895,0
0.39,0.0015
0.3905,0
0.391,0
0.3915,0.0015
0.392,0.0015
0.3925,0.0015
0.393,0
0.3935,0
0.394,0
0.3945,0
0.395,0.0015
0.3955,0
0.396,0.0015
0.3965,0.0015
0.397,0.0015
0.3975,0.0015
0.398,0.0015
0.3985,0.0015
0.399,0
0.3995,0
0.4,0.0015
0.4005,0
0.401,0
0.4015,0
0.402,0.0015
0.4025,0
0.403,0.0015
0.4035,0.0015
0.404,0.0015
0.4045,0.0015
0.405,0.0015
0.4055,0
0.406,0
0.4065,0
0.407,0
0.4075,0
0.408,0
0.4085,0
0.409,0
0.4095,0
0.41,0
0.4105,0.0015
0.411,0
0.4115,0
0.412,0
0.4125,0
0.413,0
0.4135,0.0015
0.414,0
0.4145,0
0.415,0
0.4155,0
0.416,0
0.4165,0
0.417,0.0015
0.4175,0.0015
0.418,0
0.4185,0
0.419,0
0.4195,0
0.42,0
0.4205,0
0.421,0.0015
0.4215,0
0.422,0
0.4225,0.0015
0.423,0
0.4235,0.0015
0.424,0
0.4245,0
0.425,0
0.4255,0
0.426,0
0.4265,0
0.427,0
0.4275,0
0.428,0
0.4285,0.0015
0.429,0.0015
0.4295,0.0015
0.43,0.0015
0.4305,0
0.431,0
0.4315,0
0.432,0
0.4325,0
0.433,0
0.4335,0.0015
0.434,0
0.4345,0.0015
0.435,0.0015
0.4355,0.0015
0.436,0.0015
0.4365,0.0015
0.437,0
0.4375,0.0015
0.438,0.0015
0.4385,0
0.439,0.0015
0.4395,0.0015
0.44,0.0015
0.4405,0.0015
0.441,0.0015
0.4415,0.0015
0.442,0.003
0.4425,0.0015
0.443,0.0015
0.4435,0.0015
0.444,0.0015
0.4445,0.003
0.445,0.0015
0.4455,0.003
0.446,0.0015
0.4465,0.0015
0.447,0.0015
0.4475,0.003
0.448,0.003
0.4485,0.0015
0.449,0.0015
0.4495,0.003
0.45,0.0015
0.4505,0.0015
0.451,0.003
0.4515,0.003
0.452,0.003
0.4525,0.003
0.453,0.003
0.4535,0.0015
0.454,0.0015
0.4545,0.003
0.455,0.003
0.4555,0.003
0.456,0.003
0.4565,0.003
0.457,0.003
0.4575,0.003
0.458,0.003
0.4585,0.0045
0.459,0.003
0.4595,0.003
0.46,0.003
0.4605,0.003
0.461,0.003
0.4615,0.003
0.462,0.0015
0.4625,0.003
0.463,0.003
0.4635,0.003
0.464,0.003
0.4645,0.003
0.465,0.003
0.4655,0.0015
0.466,0.003
0.4665,0.003
0.467,0.003
0.4675,0.003
0.468,0.003
0.4685,0.003
0.469,0.003
0.4695,0.003
0.47,0.003
0.4705,0.003
0.471,0.003
0.4715,0.0015
0.472,0.003
0.4725,0.003
0.473,0.0015
0.4735,0.0015
0.474,0.0015
0.4745,0.003
0.475,0.003
0.4755,0.003
0.476,0.0015
0.4765,0.0015
0.477,0.0015
0.4775,0.0015
0.478,0.003
0.4785,0.0015
0.479,0.0015
0.4795,0.0015
0.48,0.0015
0.4805,0.0015
0.481,0.0015
0.4815,0.0015
0.482,0.0015
0.4825,0.0015
0.483,0
0.4835,0.0015
0.484,0.0015
0.4845,0.0015
0.485,0.0015
0.4855,0.0015
0.486,0
0.4865,0
0.487,0
0.4875,0
0.488,-0.0015
0.4885,0
0.489,0.0015
0.4895,0
0.49,0
0.4905,0
0.491,0
0.4915,-0.0015
0.492,0
0.4925,0
0.493,0
0.4935,0
0.494,0
0.4945,0
0.495,-0.0015
0.4955,0
0.496,0
0.4965,0
0.497,0
0.4975,0
0.498,0
0.4985,0
0.499,0
0.4995,0
0.5,-0.0015
0.5005,0
0.501,-0.0015
0.5015,0
0.502,-0.0015
0.5025,0
0.503,0
0.5035,0
0.504,0
0.5045,0
0.505,0
0.5055,0
0.506,0
0.5065,0
0.507,0
0.5075,0
0.508,0
0.5085,0
0.509,0
0.5095,0
0.51,0
0.5105,0
0.511,0
0.5115,0
0.512,0.0015
0.5125,0.0015
0.513,0
0.5135,0.0015
0.514,0.0015
0.5145,0.0015
0.515,0.0015
0.5155,0.0015
0.516,0
0.5165,0.0015
0.517,0.0015
0.5175,0.0015
0.518,0.0015
0.5185,0.0015
0.519,0.0015
0.5195,0.0015
0.52,0.0015
0.5205,0.0015
0.521,0.003
0.5215,0.0015
0.522,0.0015
0.5225,0.0015
0.523,0.0015
0.5235,0.003
0.524,0.0015
0.5245,0.0015
0.525,0.003
0.5255,0.0015
0.526,0.0015
0.5265,0.0015
0.527,0.0015
0.5275,0.0015
0.528,0.0015
0.5285,0.003
0.529,0.0015
0.5295,0.0015
0.53,0.0015
0.5305,0.003
0.531,0.003
0.5315,0.0015
0.532,0.0015
0.5325,0.003
0.533,0.003
0.5335,0.003
0.534,0.003
0.5345,0.003
0.535,0.0015
0.5355,0.003
0.536,0.0015
0.5365,0.003
0.537,0.0015
0.5375,0.003
0.538,0.0015
0.5385,0.003
0.539,0.003
0.5395,0.0015
0.54,0.003
0.5405,0.003
0.541,0.003
0.5415,0.0015
0.542,0.003
0.5425,0.003
0.543,0.003
0.5435,0.0015
0.544,0.003
0.5445,0.003
0.545,0.0015
0.5455,0.003
0.546,0.003
0.5465,0.0015
0.547,0.003
0.5475,0.003
0.548,0.003
0.5485,0.0015
0.549,0.003
0.5495,0.003
0.55,0.003
0.5505,0.0015
0.551,0.003
0.5515,0.003
0.552,0.003
0.5525,0.003
0.553,0.003
0.5535,0.003
0.554,0.003
0.5545,0.0015
0.555,0.003
0.5555,0.003
0.556,0.003
0.5565,0.003
0.557,0.0015
0.5575,0.003
0.558,0.003
0.5585,0.0015
0.559,0.003
0.5595,0.003
0.56,0.003
0.5605,0.003
0.561,0.003
0.5615,0.003
0.562,0.003
0.5625,0.003
0.563,0.003
0.5635,0.003
0.564,0.0015
0.5645,0.003
0.565,0.003
0.5655,0.003
0.566,0.003
0.5665,0.003
0.567,0.003
0.5675,0.003
0.568,0.003
0.5685,0.003
0.569,0.003
0.5695,0.0015
0.57,0.003
0.5705,0.003
0.571,0.0015
0.5715,0.003
0.572,0.003
0.5725,0.003
0.573,0.003
0.5735,0.0015
0.574,0.003
0.5745,0.0015
0.575,0.0015
0.5755,0.003
0.576,0.003
0.5765,0.003
0.577,0.003
0.5775,0.003
0.578,0.003
0.5785,0.003
0.579,0.003
0.5795,0.0015
0.58,0.003
0.5805,0.003
0.581,0.0015
0.5815,0.003
0.582,0.0015
0.5825,0.0015
0.583,0.0015
0.5835,0.003
0.584,0.0015
0.5845,0.003
0.585,0.003
0.5855,0.003
0.586,0.003
0.5865,0.003
0.587,0.003
0.5875,0.0015
0.588,0.0015
0.5885,0.003
0.589,0.0015
0.5895,0.0015
0.59,0.0015
0.5905,0.0015
0.591,0.0015
0.5915,0.0015
0.592,0.003
0.5925,0.003
0.593,0.0015
0.5935,0.0015
0.594,0.0015
0.5945,0.0015
0.595,0.0015
0.5955,0.0015
0.596,0.0015
0.5965,0.0015
0.597,0.0015
0.5975,0.0015
0.598,0.0015
0.5985,0.0015
0.599,0.0015
0.5995,0.0015
0.6,0.0015
0.6005,0.0015
0.601,0.0015
0.6015,0.0015
0.602,0.0015
0.6025,0.0015
0.603,0.0015
0.6035,0.0015
0.604,0.0015
0.6045,0.0015
0.605,0.0015
0.6055,0.0015
0.606,0.0015
0.6065,0.0015
0.607,0.0015
0.6075,0.0015
0.608,0.0015
0.6085,0.0015
0.609,0.0015
0.6095,0.0015
0.61,0.0015
0.6105,0.0015
0.611,0.0015
0.6115,0.0015
0.612,0.0015
0.6125,0.0015
0.613,0.0015
0.6135,0.0015
0.614,0.0015
0.6145,0.0015
0.615,0.0015
0.6155,0.0015
0.616,0.0015
0.6165,0.0015
0.617,0.0015
0.6175,0.003
0.618,0.0015
0.6185,0.0015
0.619,0.003
0.6195,0.003
0.62,0.0015
0.6205,0.0015
0.621,0.003
0.6215,0.0015
0.622,0.0015
0.6225,0.0015
0.623,0
0.6235,0.0015
0.624,0.0015
0.6245,0.0015
0.625,0.003
0.6255,0.0015
0.626,0.0015
0.6265,0.0015
0.627,0.0015
0.6275,0.0015
0.628,0.0015
0.6285,0.0015
0.629,0.0015
0.6295,0.0015
0.63,0.003
0.6305,0.003
0.631,0.003
0.6315,0.0015
0.632,0.0015
0.6325,0.0015
0.633,0.0015
0.6335,0.003
0.634,0.0015
0.6345,0.0015
0.635,0.0015
0.6355,0.0015
0.636,0.0015
0.6365,0.003
0.637,0.003
0.6375,0.003
0.638,0.003
0.6385,0.003
0.639,0.003
0.6395,0.0015
0.64,0.0015
0.6405,0.0015
0.641,0.0015
0.6415,0.003
0.642,0.003
0.6425,0.0015
0.643,0.003
0.6435,0.003
0.644,0.0015
0.6445,0.003
0.645,0.003
0.6455,0.003
0.646,0.0015
0.6465,0.0015
0.647,0.0015
0.6475,0.003
0.648,0.003
0.6485,0.003
0.649,0.003
0.6495,0.0015
0.65,0.003
0.6505,0.003
0.651,0.003
0.6515,0.003
0.652,0.0015
0.6525,0.0015
0.653,0.003
0.6535,0.003
0.654,0.003
0.6545,0.003
0.655,0.003
0.6555,0.003
0.656,0.003
0.6565,0.003
0.657,0.003
0.6575,0.003
0.658,0.0015
0.6585,0.0015
0.659,0.003
0.6595,0.003
0.66,0.003
0.6605,0.003
0.661,0.0015
0.6615,0.003
0.662,0.003
0.6625,0.003
0.663,0.003
0.6635,0.003
0.664,0.003
0.6645,0.003
0.665,0.003
0.6655,0.003
0.666,0.003
0.6665,0.003
0.667,0.003
0.6675,0.003
0.668,0.003
0.6685,0.0015
0.669,0.003
0.6695,0.003
0.67,0.003
0.6705,0.003
0.671,0.003
0.6715,0.003
0.672,0.0015
0.6725,0.0015
0.673,0.003
0.6735,0.003
0.674,0.003
0.6745,0.003
0.675,0.0015
0.6755,0.003
0.676,0.0015
0.6765,0.003
0.677,0.0015
0.6775,0.003
0.678,0.003
0.6785,0.003
0.679,0.003
0.6795,0.0015
0.68,0.003
0.6805,0.0015
0.681,0.0015
0.6815,0.0015
0.682,0.003
0.6825,0.003
0.683,0.0015
0.6835,0.003
0.684,0.003
0.6845,0.0015
0.685,0.0015
0.6855,0.003
0.686,0.0015
0.6865,0.003
0.687,0.0015
0.6875,0.003
0.688,0.0015
0.6885,0.0015
0.689,0.0015
0.6895,0.0015
0.69,0.0015
0.6905,0.0015
0.691,0.0015
0.6915,0.0015
0.692,0.0015
0.6925,0.0015
0.693,0.0015
0.6935,0.0015
0.694,0.0015
0.6945,0.0015
0.695,0.0015
0.6955,0.0015
0.696,0.0015
0.6965,0.0015
0.697,0.0015
0.6975,0.0015
0.698,0.0015
0.6985,0
0.699,0.0015
0.6995,0.0015
0.7,0.0015
0.7005,0.0015
0.701,0.0015
0.7015,0.0015
0.702,0.0015
0.7025,0.0015
0.703,0.0015
0.7035,0.0015
0.704,0.0015
0.7045,0.0015
0.705,0.0015
0.7055,0.0015
0.706,0.0015
0.7065,0.0015
0.707,0.0015
0.7075,0.0015
0.708,0.0015
0.7085,0.0015
0.709,0
0.7095,0.0015
0.71,0.0015
0.7105,0.0015
0.711,0.0015
0.7115,0.0015
0.712,0.0015
0.7125,0
0.713,0.0015
0.7135,0.0015
0.714,0.0015
0.7145,0.0015
0.715,0.0015
0.7155,0.0015
0.716,0.0015
0.7165,0.0015
0.717,0.0015
0.7175,0.003
0.718,0.0015
0.7185,0.0015
0.719,0.0015
0.7195,0.0015
0.72,0.0015
0.7205,0.0015
0.721,0.0015
0.7215,0.0015
0.722,0.0015
0.7225,0.0015
0.723,0.0015
0.7235,0.0015
0.724,0.0015
0.7245,0.0015
0.725,0.0015
0.7255,0.0015
0.726,0.0015
0.7265,0.0015
0.727,0.0015
0.7275,0.0015
0.728,0.0015
0.7285,0.0015
0.729,0.0015
0.7295,0.0015
0.73,0.0015
0.7305,0.0015
0.731,0.0015
0.7315,0.0015
0.732,0.0015
0.7325,0.0015
0.733,0.0015
0.7335,0.0015
0.734,0.0015
0.7345,0.0015
0.735,0.003
0.7355,0.0015
0.736,0.0015
0.7365,0.0015
0.737,0.0015
0.7375,0.0015
0.738,0.0015
0.7385,0.003
0.739,0.0015
0.7395,0.0015
0.74,0.0015
0.7405,0.003
0.741,0.0015
0.7415,0.003
0.742,0.0015
0.7425,0.003
0.743,0.003
0.7435,0.0015
0.744,0.003
0.7445,0.003
0.745,0.0015
0.7455,0.003
0.746,0.0015
0.7465,0.003
0.747,0.003
0.7475,0.003
0.748,0.003
0.7485,0.003
0.749,0.003
0.7495,0.0015
0.75,0.003
0.7505,0.003
0.751,0.0015
0.7515,0.003
0.752,0.003
0.7525,0.0015
0.753,0.003
0.7535,0.003
0.754,0.003
0.7545,0.003
0.755,0.003
0.7555,0.003
0.756,0.003
0.7565,0.003
0.757,0.003
0.7575,0.003
0.758,0.003
0.7585,0.003
0.759,0.003
0.7595,0.003
0.76,0.003
0.7605,0.003
0.761,0.003
0.7615,0.003
0.762,0.0015
0.7625,0.003
0.763,0.003
0.7635,0.003
0.764,0.003
0.7645,0.003
0.765,0.003
0.7655,0.003
0.766,0.003
0.7665,0.003
0.767,0.0015
0.7675,0.003
0.768,0.003
0.7685,0.003
0.769,0.003
0.7695,0.003
0.77,0.003
0.7705,0.003
0.771,0.003
0.7715,0.003
0.772,0.003
0.7725,0.003
0.773,0.003
0.7735,0.003
0.774,0.003
0.7745,0.003
0.775,0.003
0.7755,0.003
0.776,0.003
0.7765,0.003
0.777,0.003
0.7775,0.003
0.778,0.0015
0.7785,0.003
0.779,0.003
0.7795,0.003
0.78,0.0045
0.7805,0.003
0.781,0.003
0.7815,0.003
0.782,0.003
0.7825,0.003
0.783,0.003
0.7835,0.003
0.784,0.003
0.7845,0.003
0.785,0.003
0.7855,0.003
0.786,0.003
0.7865,0.0015
0.787,0.003
0.7875,0.003
0.788,0.003
0.7885,0.0045
0.789,0.003
0.7895,0.003
0.79,0.0015
0.7905,0.003
0.791,0.003
0.7915,0.003
0.792,0.003
0.7925,0.0045
0.793,0.003
0.7935,0.003
0.794,0.003
0.7945,0.003
0.795,0.003
0.7955,0.003
0.796,0.003
0.7965,0.003
0.797,0.0015
0.7975,0.0015
0.798,0.003
0.7985,0.003
0.799,0.003
0.7995,0.003
0.8,0.003
0.8005,0.003
0.801,0.0015
0.8015,0.0015
0.802,0.0015
0.8025,0.0015
0.803,0.003
0.8035,0.0015
0.804,0.0015
0.8045,0.0015
0.805,0.0015
0.8055,0.0015
0.806,0.0015
0.8065,0.0015
0.807,0.0015
0.8075,0.0015
0.808,0.0015
0.8085,0.003
0.809,0.0015
0.8095,0.0015
0.81,0.0015
0.8105,0.0015
0.811,0.0015
0.8115,0.0015
0.812,0.0015
0.8125,0.0015
0.813,0.0015
0.8135,0.0015
0.814,0.0015
0.8145,0.0015
0.815,0.0015
0.8155,0.0015
0.816,0.0015
0.8165,0.0015
0.817,0
0.8175,0.0015
0.818,0.0015
0.8185,0.0015
0.819,0.0015
0.8195,0.0015
0.82,0.0015
0.8205,0
0.821,0
0.8215,0.0015
0.822,0.0015
0.8225,0.0015
0.823,0.0015
0.8235,0.003
0.824,0.0015
0.8245,0.0015
0.825,0.0015
0.8255,0.0015
0.826,0.0015
0.8265,0
0.827,0
0.8275,0.0015
0.828,0.0015
0.8285,0.0015
0.829,0.0015
0.8295,0.0015
0.83,0.0015
0.8305,0.0015
0.831,0.0015
0.8315,0.0015
0.832,0.0015
0.8325,0.0015
0.833,0.003
0.8335,0.0015
0.834,0.0015
0.8345,0.003
0.835,0.003
0.8355,0.0015
0.836,0.003
0.8365,0.003
0.837,0.003
0.8375,0.003
0.838,0.003
0.8385,0.003
0.839,0.003
0.8395,0.003
0.84,0.003
0.8405,0.003
0.841,0.003
0.8415,0.003
0.842,0.003
0.8425,0.003
0.843,0.003
0.8435,0.0015
0.844,0.003
0.8445,0.003
0.845,0.003
0.8455,0.003
0.846,0.003
0.8465,0.003
0.847,0.003
0.8475,0.003
0.848,0.003
0.8485,0.003
0.849,0.003
0.8495,0.0015
0.85,0.0015
0.8505,0.003
0.851,0.0015
0.8515,0.003
0.852,0.003
0.8525,0.003
0.853,0.003
0.8535,0.003
0.854,0.0015
0.8545,0.003
0.855,0.003
0.8555,0.003
0.856,0.003
0.8565,0.0015
0.857,0.003
0.8575,0.003
0.858,0.003
0.8585,0.003
0.859,0.003
0.8595,0.003
0.86,0.003
0.8605,0.003
0.861,0.003
0.8615,0.003
0.862,0.003
0.8625,0.0015
0.863,0.003
0.8635,0.003
0.864,0.0015
0.8645,0.003
0.865,0.003
0.8655,0.003
0.866,0.003
0.8665,0.003
0.867,0.003
0.8675,0.003
0.868,0.003
0.8685,0.003
0.869,0.003
0.8695,0.0045
0.87,0.003
0.8705,0.003
0.871,0.003
0.8715,0.003
0.872,0.003
0.8725,0.003
0.873,0.003
0.8735,0.003
0.874,0.003
0.8745,0.0015
0.875,0.0015
0.8755,0.003
0.876,0.003
0.8765,0.003
0.877,0.003
0.8775,0.0015
0.878,0.003
0.8785,0.003
0.879,0.0015
0.8795,0.003
0.88,0.003
0.8805,0.003
0.881,0.0015
0.8815,0.003
0.882,0.0015
0.8825,0.003
0.883,0.0015
0.8835,0.0015
0.884,0.003
0.8845,0.0015
0.885,0.0015
0.8855,0.0015
0.886,0.0015
0.8865,0.003
0.887,0.003
0.8875,0
0.888,0
0.8885,0.0015
0.889,0.0015
0.8895,0.0015
0.89,0.0015
0.8905,0.0015
0.891,0
0.8915,0.0015
0.892,0
0.8925,0
0.893,0
0.8935,0.0015
0.894,0.0015
0.8945,0
0.895,0.0015
0.8955,0
0.896,0
0.8965,0
0.897,0
0.8975,0
0.898,0.0015
0.8985,0.0015
0.899,0.0015
0.8995,0
0.9,0.0015
0.9005,0.0015
0.901,0.0015
0.9015,0
0.902,0.0015
0.9025,0.0015
0.903,0.0015
0.9035,0.0015
0.904,0
0.9045,0.0015
0.905,0.0015
0.9055,0.0015
0.906,0
0.9065,0.003
0.907,0.0015
0.9075,0
0.908,0
0.9085,0.0015
0.909,0
0.9095,0.0015
0.91,0.0015
0.9105,0.003
0.911,0.0015
0.9115,0.0015
0.912,0.0015
0.9125,0.0015
0.913,0.0015
0.9135,0.0015
0.914,0.0015
0.9145,0.0015
0.915,0.0015
0.9155,0.0015
0.916,0.003
0.9165,0.003
0.917,0.003
0.9175,0.003
0.918,0.003
0.9185,0.0015
0.919,0.0015
0.9195,0.003
0.92,0.0015
0.9205,0.003
0.921,0.0015
0.9215,0.003
0.922,0.0015
0.9225,0.003
0.923,0.0015
0.9235,0.0015
0.924,0.003
0.9245,0.0015
0.925,0.0015
0.9255,0.0015
0.926,0.003
0.9265,0.0015
0.927,0.0015
0.9275,0.0015
0.928,0.0015
0.9285,0.0015
0.929,0.003
0.9295,0.003
0.93,0.003
0.9305,0.0015
0.931,0.0015
0.9315,0.003
0.932,0.003
0.9325,0.0015
0.933,0.003
0.9335,0.003
0.934,0.003
0.9345,0.003
0.935,0.003
0.9355,0.003
0.936,0.003
0.9365,0.003
0.937,0.003
0.9375,0.003
0.938,0.0015
0.9385,0.003
0.939,0.003
0.9395,0.003
0.94,0.003
0.9405,0.003
0.941,0.003
0.9415,0.003
0.942,0.0015
0.9425,0.003
0.943,0.003
0.9435,0.003
0.944,0.003
0.9445,0.003
0.945,0.003
0.9455,0.0015
0.946,0.003
0.9465,0.0015
0.947,0.0015
0.9475,0.003
0.948,0.003
0.9485,0.003
0.949,0.003
0.9495,0.003
0.95,0.003
0.9505,0.003
0.951,0.003
0.9515,0.003
0.952,0.003
0.9525,0.003
0.953,0.003
0.9535,0.003
0.954,0.003
0.9545,0.003
0.955,0.0015
0.9555,0.003
0.956,0.003
0.9565,0.003
0.957,0.003
0.9575,0.003
0.958,0.003
0.9585,0.003
0.959,0.003
0.9595,0.003
0.96,0.003
0.9605,0.003
0.961,0.003
0.9615,0.003
0.962,0.003
0.9625,0.003
0.963,0.003
0.9635,0.003
0.964,0.003
0.9645,0.003
0.965,0.003
0.9655,0.003
0.966,0.003
0.9665,0.003
0.967,0.003
0.9675,0.003
0.968,0.003
0.9685,0.003
0.969,0.003
0.9695,0.003
0.97,0.003
0.9705,0.003
0.971,0.003
0.9715,0.0015
0.972,0.003
0.9725,0.003
0.973,0.003
0.9735,0.003
0.974,0.003
0.9745,0.0045
0.975,0.003
0.9755,0.003
0.976,0.003
0.9765,0.003
0.977,0.003
0.9775,0.003
0.978,0.0015
0.9785,0.003
0.979,0.003
0.9795,0.003
0.98,0.003
0.9805,0.003
0.981,0.0015
0.9815,0.0015
0.982,0.003
0.9825,0.003
0.983,0.0015
0.9835,0.003
0.984,0.0015
0.9845,0.0015
0.985,0.0015
0.9855,0.003
0.986,0.0015
0.9865,0.003
0.987,0.003
0.9875,0.003
0.988,0.003
0.9885,0.0015
0.989,0.0015
0.9895,0.003
0.99,0.0015
0.9905,0.0015
0.991,0.0015
0.9915,0.0015
0.992,0.0015
0.9925,0.0015
0.993,0.0015
0.9935,0.0015
0.994,0.0015
0.9945,0.0015
0.995,0.0015
0.9955,0.0015
0.996,0.0015
0.9965,0.0015
0.997,0.0015
0.9975,0.0015
0.998,0.0015
0.9985,0.0015
0.999,0.0015
0.9995,0.0015
1,0.0015
1.0005,0.0015
1.001,0.0015
1.0015,0.0015
1.002,0
1.0025,0.0015
1.003,0.0015
1.0035,0.0015
1.004,0
1.0045,0.0015
1.005,0.0015
1.0055,0
1.006,0.0015
1.0065,0.0015
1.007,0.0015
1.0075,0.0015
1.008,0.0015
1.0085,0
1.009,0
1.0095,0.0015
1.01,0
1.0105,0.0015
1.011,0.0015
1.0115,0.0015
1.012,0.0015
1.0125,0.0015
1.013,0.0015
1.0135,0.0015
1.014,0.0015
1.0145,0.0015
1.015,0.0015
1.0155,0.0015
1.016,0.0015
1.0165,0.0015
1.017,0.0015
1.0175,0.003
1.018,0.0015
1.0185,0.0015
1.019,0.0015
1.0195,0.0015
1.02,0.0015
1.0205,0.0015
1.021,0.003
1.0215,0.0015
1.022,0.0015
1.0225,0.0015
1.023,0.0015
1.0235,0.0015
1.024,0.003
1.0245,0.003
1.025,0.0015
1.0255,0.0015
1.026,0.0015
1.0265,0.0015
1.027,0.0015
1.0275,0.0015
1.028,0.0015
1.0285,0.003
1.029,0.003
1.0295,0.0015
1.03,0.0015
1.0305,0.0015
1.031,0.0015
1.0315,0.003
1.032,0.003
1.0325,0.0015
1.033,0.0015
1.0335,0.003
1.034,0.0015
1.0345,0.003
1.035,0.003
1.0355,0.003
1.036,0.0015
1.0365,0.003
1.037,0.003
1.0375,0.003
1.038,0.003
1.0385,0.003
1.039,0.003
1.0395,0.003
1.04,0.003
1.0405,0.0015
1.041,0.0015
1.0415,0.0015
1.042,0.003
1.0425,0.0015
1.043,0.003
1.0435,0.003
1.044,0.003
1.0445,0.003
1.045,0.003
1.0455,0.003
1.046,0.003
1.0465,0.0015
1.047,0.003
1.0475,0.003
1.048,0.0015
1.0485,0.003
1.049,0.003
1.0495,0.003
1.05,0.003
1.0505,0.0015
1.051,0.0015
1.0515,0.0015
1.052,0.003
1.0525,0.003
1.053,0.003
1.0535,0.003
1.054,0.003
1.0545,0.003
1.055,0.003
1.0555,0.003
1.056,0.003
1.0565,0.003
1.057,0.003
1.0575,0.003
1.058,0.003
1.0585,0.0015
1.059,0.0015
1.0595,0.0015
1.06,0.0015
1.0605,0.0015
1.061,0.003
1.0615,0.0015
1.062,0.0015
1.0625,0.0015
1.063,0.0015
1.0635,0.0015
1.064,0.0015
1.0645,0.0015
1.065,0.0015
1.0655,0.0015
1.066,0
1.0665,0.0015
1.067,0.0015
1.0675,0.0015
1.068,0.003
1.0685,0.0015
1.069,0.0015
1.0695,0.003
1.07,0.0015
1.0705,0.0015
1.071,0.003
1.0715,0.0015
1.072,0
1.0725,0.0015
1.073,0.0015
1.0735,0.0015
1.074,0.0015
1.0745,0.0015
1.075,0.003
1.0755,0.0015
1.076,0
1.0765,0.0015
1.077,0.0015
1.0775,0.0015
1.078,0.0015
1.0785,0.0015
1.079,0.0015
1.0795,0
1.08,0.0015
1.0805,0.0015
1.081,0.0015
1.0815,0.0015
1.082,0.0015
1.0825,0.0015
1.083,0.0015
1.0835,0.0015
1.084,0.003
1.0845,0.0015
1.085,0.0015
1.0855,0.0015
1.086,0.0015
1.0865,0.0015
1.087,0.0015
1.0875,0.0015
1.088,0.0015
1.0885,0.0015
1.089,0.0015
1.0895,0.0015
1.09,0.0015
1.0905,0.0015
1.091,0.0015
1.0915,0.003
1.092,0.0015
1.0925,0.003
1.093,0.0015
1.0935,0.003
1.094,0.0015
1.0945,0.003
1.095,0.0015
1.0955,0.003
1.096,0.003
1.0965,0.003
1.097,0.0015
1.0975,0.003
1.098,0.003
1.0985,0.003
1.099,0.003
1.0995,0.003
1.1,0.003
1.1005,0.003
1.101,0.0015
1.1015,0.003
1.102,0.003
1.1025,0.003
1.103,0.003
1.1035,0.003
1.104,0.003
1.1045,0.003
1.105,0.003
1.1055,0.003
1.106,0.0015
1.1065,0.003
1.107,0.003
1.1075,0.0015
1.108,0.0015
1.1085,0.0015
1.109,0.003
1.1095,0.0015
1.11,0.003
1.1105,0.0015
1.111,0.0015
1.1115,0.0015
1.112,0.0015
1.1125,0.003
1.113,0.003
1.1135,0.003
1.114,0.003
1.1145,0.0015
1.115,0.003
1.1155,0.003
1.116,0.003
1.1165,0.003
1.117,0.003
1.1175,0.0015
1.118,0.003
1.1185,0.003
1.119,0.003
1.1195,0.003
1.12,0.0015
1.1205,0.003
1.121,0.0015
1.1215,0.003
1.122,0.003
1.1225,0.0015
1.123,0.003
1.1235,0.003
1.124,0.0015
1.1245,0.003
1.125,0.003
1.1255,0.003
1.126,0.003
1.1265,0.003
1.127,0.003
1.1275,0.003
1.128,0.003
1.1285,0.003
1.129,0.003
1.1295,0.0015
1.13,0.003
1.1305,0.003
1.131,0.003
1.1315,0.0015
1.132,0.003
1.1325,0.003
1.133,0.003
1.1335,0.003
1.134,0.003
1.1345,0.0015
1.135,0.003
1.1355,0.0015
1.136,0.003
1.1365,0.003
1.137,0.003
1.1375,0.003
1.138,0.003
1.1385,0.0015
1.139,0.003
1.1395,0.003
1.14,0.003
1.1405,0.0015
1.141,0.0015
1.1415,0.0015
1.142,0.003
1.1425,0.003
1.143,0.003
1.1435,0.003
1.144,0.003
1.1445,0.003
1.145,0.0015
1.1455,0.003
1.146,0.003
1.1465,0.003
1.147,0.0015
1.1475,0.003
1.148,0.003
1.1485,0.003
1.149,0.003
1.1495,0.003
1.15,0.003
1.1505,0.0015
1.151,0.003
1.1515,0.003
1.152,0.0015
1.1525,0.003
1.153,0.003
1.1535,0.003
1.154,0.003
1.1545,0.003
1.155,0.003
1.1555,0.003
1.156,0.003
1.1565,0.003
1.157,0.003
1.1575,0.003
1.158,0.003
1.1585,0.003
1.159,0.003
1.1595,0.003
1.16,0.0015
1.1605,0.003
1.161,0.003
1.1615,0.0015
1.162,0.003
1.1625,0.003
1.163,0.003
1.1635,0.003
1.164,0.003
1.1645,0.0015
1.165,0.0015
1.1655,0.0015
1.166,0.003
1.1665,0.003
1.167,0.003
1.1675,0.003
1.168,0.003
1.1685,0.003
1.169,0.0015
1.1695,0.003
1.17,0.003
1.1705,0.0015
1.171,0.0015
1.1715,0.0015
1.172,0.003
1.1725,0.0015
1.173,0.0015
1.1735,0.0015
1.174,0.0015
1.1745,0.003
1.175,0.0015
1.1755,0.003
1.176,0.003
1.1765,0.003
1.177,0.003
1.1775,0.003
1.178,0.0015
1.1785,0.003
1.179,0.003
1.1795,0.003
1.18,0.003
1.1805,0.003
1.181,0.003
1.1815,0.003
1.182,0.003
1.1825,0.003
1.183,0.003
1.1835,0.003
1.184,0.003
1.1845,0.003
1.185,0.0015
1.1855,0.0015
1.186,0.0015
1.1865,0.0015
1.187,0.003
1.1875,0.0015
1.188,0.003
1.1885,0.003
1.189,0.003
1.1895,0.003
1.19,0.003
1.1905,0.003
1.191,0.003
1.1915,0.003
1.192,0.003
1.1925,0.003
1.193,0.003
1.1935,0.003
1.194,0.003
1.1945,0.003
1.195,0.0015
1.1955,0.003
1.196,0.003
1.1965,0.0015
1.197,0.0015
1.1975,0.003
1.198,0.003
1.1985,0.0015
1.199,0.003
1.1995,0.0015
1.2,0.003
1.2005,0.0015
1.201,0.003
1.2015,0.003
1.202,0.003
1.2025,0.003
1.203,0.003
1.2035,0.0015
1.204,0.003
1.2045,0.0015
1.205,0.0015
1.2055,0.003
1.206,0.0015
1.2065,0.0015
1.207,0.0015
1.2075,0.0015
1.208,0.003
1.2085,0.0015
1.209,0.003
1.2095,0.003
1.21,0.003
1.2105,0.003
1.211,0.003
1.2115,0.003
1.212,0.003
1.2125,0.003
1.213,0.0015
1.2135,0.003
1.214,0.003
1.2145,0.003
1.215,0.003
1.2155,0.003
1.216,0.003
1.2165,0.0015
1.217,0.003
1.2175,0.003
1.218,0.003
1.2185,0.0015
1.219,0.0015
1.2195,0.0015
1.22,0.003
1.2205,0.003
1.221,0.003
1.2215,0.0015
1.222,0.003
1.2225,0.003
1.223,0.003
1.2235,0.003
1.224,0.0015
1.2245,0.003
1.225,0.0015
1.2255,0.0015
1.226,0.003
1.2265,0.003
1.227,0.003
1.2275,0.003
1.228,0.003
1.2285,0.0015
1.229,0.0015
1.2295,0.003
1.23,0.003
1.2305,0.003
1.231,0.003
1.2315,0.003
1.232,0.003
1.2325,0.003
1.233,0.0015
1.2335,0.003
1.234,0.003
1.2345,0.0015
1.235,0.003
1.2355,0.003
1.236,0.0015
1.2365,0.0015
1.237,0.0015
1.2375,0.0015
1.238,0.003
1.2385,0.0015
1.239,0.0015
1.2395,0.003
1.24,0.0015
1.2405,0.0015
1.241,0.003
1.2415,0.003
1.242,0.003
1.2425,0.0015
1.243,0.003
1.2435,0.003
1.244,0.003
1.2445,0.003
1.245,0.003
1.2455,0.003
1.246,0.0045
1.2465,0.0015
1.247,0.0015
1.2475,0.0015
1.248,0.003
1.2485,0.003
1.249,0.003
1.2495,0.0015
1.25,0.003
1.2505,0.0015
1.251,0.003
1.2515,0.003
1.252,0.0015
1.2525,0.003
1.253,0.003
1.2535,0.0015
1.254,0.003
1.2545,0.003
1.255,0.0015
1.2555,0.0015
1.256,0.0015
1.2565,0.003
1.257,0.003
1.2575,0.0015
1.258,0.003
1.2585,0.003
1.259,0.003
1.2595,0.003
1.26,0.0015
1.2605,0.0015
1.261,0.003
1.2615,0.0015
1.262,0.003
1.2625,0.0015
1.263,0.003
1.2635,0.0015
1.264,0.003
1.2645,0.003
1.265,0.0015
1.2655,0.0015
1.266,0.0015
1.2665,0.0015
1.267,0.003
1.2675,0.003
1.268,0.0015
1.2685,0.003
1.269,0.0015
1.2695,0.003
1.27,0.0015
1.2705,0.0015
1.271,0.0015
1.2715,0.003
1.272,0.0015
1.2725,0.0015
1.273,0.003
1.2735,0.0015
1.274,0.0015
1.2745,0.0015
1.275,0.0015
1.2755,0.0015
1.276,0.0015
1.2765,0.003
1.277,0.0015
1.2775,0.0015
1.278,0.003
1.2785,0.0015
1.279,0.0015
1.2795,0.0015
1.28,0.0015
1.2805,0.0015
1.281,0.0015
1.2815,0.0015
1.282,0.0015
1.2825,0.0015
1.283,0.0015
1.2835,0.0015
1.284,0.0015
1.2845,0.0015
1.285,0.0015
1.2855,0.0015
1.286,0.0015
1.2865,0.0015
1.287,0
1.2875,0
1.288,0
1.2885,0
1.289,0
1.2895,0.0015
1.29,0.0015
1.2905,0
1.291,0
1.2915,0.0015
1.292,0.0015
1.2925,0.0015
1.293,0
1.2935,0
1.294,0.0015
1.2945,0
1.295,0.0015
1.2955,0.0015
1.296,0.0015
1.2965,0.0015
1.297,0.0015
1.2975,0.0015
1.298,0.0015
1.2985,0.0015
1.299,0.0015
1.2995,0.0015
1.3,0
1.3005,0.0015
1.301,0.0015
1.3015,0.0015
1.302,0.0015
1.3025,0.0015
1.303,0.0015
1.3035,0.0015
1.304,0.0015
1.3045,0.0015
1.305,0.0015
1.3055,0.0015
1.306,0.0015
1.3065,0.003
1.307,0.003
1.3075,0.0015
1.308,0.0015
1.3085,0.0015
1.309,0.0015
1.3095,0.0015
1.31,0.003
1.3105,0.0015
1.311,0.003
1.3115,0.0015
1.312,0.0015
1.3125,0.0015
1.313,0.003
1.3135,0.003
1.314,0.003
1.3145,0.003
1.315,0.0015
1.3155,0.0045
1.316,0.003
1.3165,0.0015
1.317,0.0015
1.3175,0.003
1.318,0.003
1.3185,0.003
1.319,0.0045
1.3195,0.003
1.32,0.003
1.3205,0.003
1.321,0.003
1.3215,0.003
1.322,0.003
1.3225,0.003
1.323,0.0015
1.3235,0.003
1.324,0.0015
1.3245,0.003
1.325,0.003
1.3255,0.0015
1.326,0.0015
1.3265,0.003
1.327,0.003
1.3275,0.003
1.328,0.003
1.3285,0.003
1.329,0.003
1.3295,0.003
1.33,0.003
1.3305,0.003
1.331,0.0015
1.3315,0.003
1.332,0.003
1.3325,0.003
1.333,0.003
1.3335,0.003
1.334,0.003
1.3345,0.003
1.335,0.0015
1.3355,0.003
1.336,0.0015
1.3365,0.003
1.337,0.0015
1.3375,0.0015
1.338,0.003
1.3385,0.003
1.339,0.003
1.3395,0.003
1.34,0.0015
1.3405,0.003
1.341,0.003
1.3415,0.003
1.342,0.003
1.3425,0.003
1.343,0.003
1.3435,0.0015
1.344,0.003
1.3445,0.003
1.345,0.003
1.3455,0.003
1.346,0.003
1.3465,0.003
1.347,0.003
1.3475,0.0015
1.348,0.0015
1.3485,0.003
1.349,0.003
1.3495,0.003
1.35,0.003
1.3505,0.0015
1.351,0.003
1.3515,0.003
1.352,0.003
1.3525,0.003
1.353,0.003
1.3535,0.003
1.354,0.003
1.3545,0.0015
1.355,0.0015
1.3555,0.003
1.356,0.003
1.3565,0.003
1.357,0.0015
1.3575,0.003
1.358,0.003
1.3585,0.003
1.359,0.003
1.3595,0.0015
1.36,0.003
1.3605,0.0015
1.361,0.0015
1.3615,0.0015
1.362,0.0015
1.3625,0.003
1.363,0.0015
1.3635,0.003
1.364,0.003
1.3645,0.0015
1.365,0.003
1.3655,0.0015
1.366,0.003
1.3665,0.0015
1.367,0.003
1.3675,0.003
1.368,0.003
1.3685,0.0015
1.369,0.0015
1.3695,0.003
1.37,0.0015
1.3705,0.0015
1.371,0.003
1.3715,0.0015
1.372,0.003
1.3725,0.003
1.373,0.003
1.3735,0.003
1.374,0.003
1.3745,0.003
1.375,0.003
1.3755,0.003
1.376,0.003
1.3765,0.003
1.377,0.003
1.3775,0.003
1.378,0.0015
1.3785,0.003
1.379,0.003
1.3795,0.003
1.38,0.003
1.3805,0.003
1.381,0.003
1.3815,0.003
1.382,0.003
1.3825,0.003
1.383,0.003
1.3835,0.003
1.384,0.003
1.3845,0.0015
1.385,0.0015
1.3855,0.0015
1.386,0.003
1.3865,0.0015
1.387,0.003
1.3875,0.003
1.388,0.003
1.3885,0.003
1.389,0.003
1.3895,0.003
1.39,0.0045
1.3905,0.003
1.391,0.003
1.3915,0.0015
1.392,0.0015
1.3925,0.0015
1.393,0.003
1.3935,0.003
1.394,0.003
1.3945,0.003
1.395,0.003
1.3955,0.003
1.396,0.0015
1.3965,0.003
1.397,0.003
1.3975,0.003
1.398,0.0015
1.3985,0.003
1.399,0.0015
1.3995,0.0015
1.4,0.003
1.4005,0.003
1.401,0.003
1.4015,0.0015
1.402,0.003
1.4025,0.003
1.403,0.003
1.4035,0.003
1.404,0.003
1.4045,0.003
1.405,0.003
1.4055,0.003
1.406,0.0015
1.4065,0.003
1.407,0.0015
1.4075,0.003
1.408,0.003
1.4085,0.003
1.409,0.003
1.4095,0.003
1.41,0.003
1.4105,0.003
1.411,0.003
1.4115,0.003
1.412,0.003
1.4125,0.003
1.413,0.003
1.4135,0.003
1.414,0.003
1.4145,0.003
1.415,0.003
1.4155,0.003
1.416,0.003
1.4165,0.003
1.417,0.003
1.4175,0.003
1.418,0.003
1.4185,0.003
1.419,0.003
1.4195,0.003
1.42,0.003
1.4205,0.003
1.421,0.003
1.4215,0.003
1.422,0.003
1.4225,0.003
1.423,0.0015
1.4235,0.003
1.424,0.003
1.4245,0.0015
1.425,0.0015
1.4255,0.003
1.426,0.0015
1.4265,0.003
1.427,0.003
1.4275,0.003
1.428,0.003
1.4285,0.003
1.429,0.003
1.4295,0.003
1.43,0.003
1.4305,0.003
1.431,0.0015
1.4315,0.003
1.432,0.003
1.4325,0.003
1.433,0.003
1.4335,0.0015
1.434,0.003
1.4345,0.003
1.435,0.003
1.4355,0.003
1.436,0.003
1.4365,0.003
1.437,0.003
1.4375,0.003
1.438,0.0015
1.4385,0.003
1.439,0.003
1.4395,0.003
1.44,0.0015
1.4405,0.003
1.441,0.0045
1.4415,0.003
1.442,0.003
1.4425,0.0015
1.443,0.0015
1.4435,0.003
1.444,0.0015
1.4445,0.003
1.445,0.003
1.4455,0.003
1.446,0.003
1.4465,0.003
1.447,0.0015
1.4475,0.003
1.448,0.003
1.4485,0.003
1.449,0.003
1.4495,0.003
1.45,0.003
1.4505,0.0015
1.451,0.0015
1.4515,0.003
1.452,0.0015
1.4525,0.003
1.453,0.003
1.4535,0.003
1.454,0.003
1.4545,0.003
1.455,0.003
1.4555,0.003
1.456,0.003
1.4565,0.003
1.457,0.003
1.4575,0.0015
1.458,0.003
1.4585,0.003
1.459,0.003
1.4595,0.003
1.46,0.003
1.4605,0.003
1.461,0.0015
1.4615,0.003
1.462,0.003
1.4625,0.003
1.463,0.003
1.4635,0.003
1.464,0.003
1.4645,0.003
1.465,0.003
1.4655,0.003
1.466,0.0015
1.4665,0.003
1.467,0.003
1.4675,0.003
1.468,0.003
1.4685,0.003
1.469,0.003
1.4695,0.003
1.47,0.003
1.4705,0.0015
1.471,0.003
1.4715,0.003
1.472,0.003
1.4725,0.003
1.473,0.0015
1.4735,0.003
1.474,0.003
1.4745,0.003
1.475,0.003
1.4755,0.003
1.476,0.003
1.4765,0.003
1.477,0.003
1.4775,0.003
1.478,0.003
1.4785,0.003
1.479,0.003
1.4795,0.003
1.48,0.003
1.4805,0.003
1.481,0.003
1.4815,0.003
1.482,0.003
1.4825,0.003
1.483,0.0015
1.4835,0.003
1.484,0.003
1.4845,0.003
1.485,0.003
1.4855,0.0015
1.486,0.003
1.4865,0.0015
1.487,0.003
1.4875,0.003
1.488,0.003
1.4885,0.003
1.489,0.003
1.4895,0.0015
1.49,0.003
1.4905,0.003
1.491,0.003
1.4915,0.003
1.492,0.003
1.4925,0.003
1.493,0.003
1.4935,0.003
1.494,0.003
1.4945,0.003
1.495,0.003
1.4955,0.003
1.496,0.003
1.4965,0.003
1.497,0.003
1.4975,0.003
1.498,0.003
1.4985,0.003
1.499,0.0015
1.4995,0.003
1.5,0.003
1.5005,0.003
1.501,0.003
1.5015,0.003
1.502,0.0015
1.5025,0.003
1.503,0.003
1.5035,0.003
1.504,0.003
1.5045,0.003
1.505,0.003
1.5055,0.003
1.506,0.003
1.5065,0.0015
1.507,0.003
1.5075,0.003
1.508,0.003
1.5085,0.003
1.509,0.003
1.5095,0.0015
1.51,0.003
1.5105,0.003
1.511,0.003
1.5115,0.003
1.512,0.003
1.5125,0.003
1.513,0.003
1.5135,0.003
1.514,0.003
1.5145,0.003
1.515,0.003
1.5155,0.003
1.516,0.003
1.5165,0.003
1.517,0.003
1.5175,0.003
1.518,0.003
1.5185,0.003
1.519,0.0015
1.5195,0.003
1.52,0.003
1.5205,0.003
1.521,0.003
1.5215,0.003
1.522,0.003
1.5225,0.003
1.523,0.003
1.5235,0.003
1.524,0.003
1.5245,0.003
1.525,0.003
1.5255,0.003
1.526,0.003
1.5265,0.003
1.527,0.003
1.5275,0.003
1.528,0.0015
1.5285,0.003
1.529,0.003
1.5295,0.0015
1.53,0.003
1.5305,0.003
1.531,0.003
1.5315,0.003
1.532,0.003
1.5325,0.003
1.533,0.0015
1.5335,0.003
1.534,0.003
1.5345,0.003
1.535,0.003
1.5355,0.003
1.536,0.003
1.5365,0.003
1.537,0.003
1.5375,0.0015
1.538,0.003
1.5385,0.0015
1.539,0.0015
1.5395,0.003
1.54,0.003
1.5405,0.003
1.541,0.0015
1.5415,0.003
1.542,0.003
1.5425,0.003
1.543,0.0015
1.5435,0.003
1.544,0.003
1.5445,0.0015
1.545,0.003
1.5455,0.003
1.546,0.003
1.5465,0.003
1.547,0.003
1.5475,0.003
1.548,0.003
1.5485,0.003
1.549,0.003
1.5495,0.003
1.55,0.003
1.5505,0.003
1.551,0.003
1.5515,0.003
1.552,0.003
1.5525,0.003
1.553,0.003
1.5535,0.003
1.554,0.003
1.5545,0.003
1.555,0.003
1.5555,0.003
1.556,0.003
1.5565,0.0045
1.557,0.003
1.5575,0.0015
1.558,0.003
1.5585,0.003
1.559,0.003
1.5595,0.0045
1.56,0.003
1.5605,0.003
1.561,0.003
1.5615,0.003
1.562,0.003
1.5625,0.003
1.563,0.003
1.5635,0.003
1.564,0.003
1.5645,0.003
1.565,0.003
1.5655,0.003
1.566,0.003
1.5665,0.003
1.567,0.003
1.5675,0.003
1.568,0.003
1.5685,0.003
1.569,0.003
1.5695,0.003
1.57,0.003
1.5705,0.003
1.571,0.003
1.5715,0.003
1.572,0.003
1.5725,0.003
1.573,0.003
1.5735,0.0015
1.574,0.003
1.5745,0.0015
1.575,0.003
1.5755,0.003
1.576,0.003
1.5765,0.003
1.577,0.0045
1.5775,0.0045
1.578,0.003
1.5785,0.003
1.579,0.003
1.5795,0.003
1.58,0.003
1.5805,0.003
1.581,0.003
1.5815,0.003
1.582,0.003
1.5825,0.003
1.583,0.003
1.5835,0.003
1.584,0.003
1.5845,0.003
1.585,0.0015
1.5855,0.003
1.586,0.003
1.5865,0.003
1.587,0.003
1.5875,0.003
1.588,0.003
1.5885,0.003
1.589,0.003
1.5895,0.0015
1.59,0.003
1.5905,0.003
1.591,0.003
1.5915,0.003
1.592,0.003
1.5925,0.003
1.593,0.003
1.5935,0.003
1.594,0.003
1.5945,0.003
1.595,0.003
1.5955,0.003
1.596,0.003
1.5965,0.003
1.597,0.003
1.5975,0.003
1.598,0.003
1.5985,0.003
1.599,0.003
1.5995,0.0015
1.6,0.003
1.6005,0.003
1.601,0.003
1.6015,0.003
1.602,0.003
1.6025,0.003
1.603,0.003
1.6035,0.003
1.604,0.003
1.6045,0.003
1.605,0.003
1.6055,0.003
1.606,0.003
1.6065,0.003
1.607,0.003
1.6075,0.003
1.608,0.003
1.6085,0.003
1.609,0.003
1.6095,0.003
1.61,0.003
1.6105,0.003
1.611,0.003
1.6115,0.003
1.612,0.003
1.6125,0.003
1.613,0.003
1.6135,0.003
1.614,0.003
1.6145,0.003
1.615,0.0015
1.6155,0.003
1.616,0.003
1.6165,0.003
1.617,0.003
1.6175,0.0045
1.618,0.0015
1.6185,0.003
1.619,0.003
1.6195,0.003
1.62,0.0015
1.6205,0.003
1.621,0.0015
1.6215,0.003
1.622,0.003
1.6225,0.003
1.623,0.003
1.6235,0.003
1.624,0.003
1.6245,0.003
1.625,0.0045
1.6255,0.003
1.626,0.003
1.6265,0.003
1.627,0.003
1.6275,0.003
1.628,0.003
1.6285,0.003
1.629,0.003
1.6295,0.003
1.63,0.003
1.6305,0.003
1.631,0.003
1.6315,0.003
1.632,0.003
1.6325,0.003
1.633,0.003
1.6335,0.003
1.634,0.003
1.6345,0.003
1.635,0.003
1.6355,0.003
1.636,0.003
1.6365,0.003
1.637,0.003
1.6375,0.003
1.638,0.003
1.6385,0.003
1.639,0.003
1.6395,0.003
1.64,0.0015
1.6405,0.003
1.641,0.003
1.6415,0.003
1.642,0.003
1.6425,0.003
1.643,0.003
1.6435,0.0015
1.644,0.003
1.6445,0.003
1.645,0.003
1.6455,0.003
1.646,0.0015
1.6465,0.003
1.647,0.003
1.6475,0.003
1.648,0.003
1.6485,0.003
1.649,0.003
1.6495,0.003
1.65,0.003
1.6505,0.003
1.651,0.003
1.6515,0.003
1.652,0.003
1.6525,0.003
1.653,0.0015
1.6535,0.003
1.654,0.003
1.6545,0.003
1.655,0.003
1.6555,0.003
1.656,0.0015
1.6565,0.003
1.657,0.003
1.6575,0.003
1.658,0.003
1.6585,0.003
1.659,0.003
1.6595,0.003
1.66,0.003
1.6605,0.003
1.661,0.003
1.6615,0.0015
1.662,0.003
1.6625,0.003
1.663,0.0015
1.6635,0.003
1.664,0.003
1.6645,0.003
1.665,0.0015
1.6655,0.0015
1.666,0.0015
1.6665,0.003
1.667,0.0015
1.6675,0.0015
1.668,0.0015
1.6685,0.003
1.669,0
1.6695,0.003
1.67,0.0015
1.6705,0.003
1.671,0.003
1.6715,0.0015
1.672,0.0015
1.6725,0.003
1.673,0.003
1.6735,0.003
1.674,0.003
1.6745,0.003
1.675,0.0015
1.6755,0.0015
1.676,0.0015
1.6765,0.003
1.677,0.003
1.6775,0.003
1.678,0.0015
1.6785,0.0015
1.679,0.003
1.6795,0.003
1.68,0.003
1.6805,0.003
1.681,0.003
1.6815,0.0015
1.682,0.0015
1.6825,0.003
1.683,0.003
1.6835,0.0015
1.684,0.0015
1.6845,0.0015
1.685,0.0015
1.6855,0.003
1.686,0.0015
1.6865,0.003
1.687,0.003
1.6875,0.0015
1.688,0.0015
1.6885,0.0015
1.689,0.003
1.6895,0.0015
1.69,0.003
1.6905,0.003
1.691,0.003
1.6915,0.003
1.692,0.0015
1.6925,0.0015
1.693,0.0015
1.6935,0.003
1.694,0.003
1.6945,0.0015
1.695,0.003
1.6955,0.0045
1.696,0.003
1.6965,0.003
1.697,0.003
1.6975,0.003
1.698,0.0015
1.6985,0.003
1.699,0.003
1.6995,0.0015
1.7,0.003
1.7005,0.003
1.701,0.003
1.7015,0.003
1.702,0.003
1.7025,0.003
1.703,0.003
1.7035,0.0015
1.704,0.0015
1.7045,0.003
1.705,0.003
1.7055,0.0015
1.706,0.003
1.7065,0.003
1.707,0.003
1.7075,0.003
1.708,0.0015
1.7085,0.0015
1.709,0.003
1.7095,0.003
1.71,0.003
1.7105,0.003
1.711,0.003
1.7115,0.003
1.712,0.003
1.7125,0.003
1.713,0.003
1.7135,0.003
1.714,0.0015
1.7145,0.003
1.715,0.003
1.7155,0.003
1.716,0.0015
1.7165,0.003
1.717,0.003
1.7175,0.003
1.718,0.003
1.7185,0.003
1.719,0.003
1.7195,0.0045
1.72,0.0015
1.7205,0.003
1.721,0.003
1.7215,0.003
1.722,0.003
1.7225,0.003
1.723,0.003
1.7235,0.003
1.724,0.003
1.7245,0.003
1.725,0.003
1.7255,0.003
1.726,0.003
1.7265,0.003
1.727,0.003
1.7275,0.003
1.728,0.003
1.7285,0.0015
1.729,0.003
1.7295,0.003
1.73,0.003
1.7305,0.0015
1.731,0.003
1.7315,0.003
1.732,0.003
1.7325,0.0015
1.733,0.0015
1.7335,0.003
1.734,0.003
1.7345,0.003
1.735,0.003
1.7355,0.003
1.736,0.003
1.7365,0.003
1.737,0.003
1.7375,0.003
1.738,0.003
1.7385,0.003
1.739,0.003
1.7395,0.003
1.74,0.0015
1.7405,0.003
1.741,0.0015
1.7415,0.003
1.742,0.003
1.7425,0.0015
1.743,0.0015
1.7435,0.003
1.744,0.003
1.7445,0.003
1.745,0.003
1.7455,0.0015
1.746,0.003
1.7465,0.0015
1.747,0.0015
1.7475,0.003
1.748,0.0015
1.7485,0.003
1.749,0.003
1.7495,0.0015
1.75,0.0015
1.7505,0.0015
1.751,0.0015
1.7515,0.003
1.752,0.003
1.7525,0.0015
1.753,0.0015
1.7535,0.003
1.754,0.003
1.7545,0.003
1.755,0.003
1.7555,0.0015
1.756,0.003
1.7565,0.0015
1.757,0.003
1.7575,0.0015
1.758,0.003
1.7585,0.003
1.759,0.003
1.7595,0.003
1.76,0.003
1.7605,0.003
1.761,0.003
1.7615,0.0015
1.762,0.003
1.7625,0.003
1.763,0.0015
1.7635,0.003
1.764,0.003
1.7645,0.003
1.765,0.003
1.7655,0.003
1.766,0.003
1.7665,0.003
1.767,0.003
1.7675,0.003
1.768,0.003
1.7685,0.0015
1.769,0.003
1.7695,0.0015
1.77,0.0015
1.7705,0.003
1.771,0.0015
1.7715,0.003
1.772,0.003
1.7725,0.003
1.773,0.003
1.7735,0.003
1.774,0.003
1.7745,0.003
1.775,0.003
1.7755,0.003
1.776,0.003
1.7765,0.003
1.777,0.003
1.7775,0.003
1.778,0.003
1.7785,0.003
1.779,0.003
1.7795,0.003
1.78,0.003
1.7805,0.003
1.781,0.0015
1.7815,0.003
1.782,0.003
1.7825,0.003
1.783,0.003
1.7835,0.003
1.784,0.003
1.7845,0.003
1.785,0.003
1.7855,0.003
1.786,0.003
1.7865,0.003
1.787,0.003
1.7875,0.003
1.788,0.003
1.7885,0.003
1.789,0.003
1.7895,0.003
1.79,0.003
1.7905,0.003
1.791,0.003
1.7915,0.003
1.792,0.003
1.7925,0.003
1.793,0.0015
1.7935,0.0015
1.794,0.003
1.7945,0.003
1.795,0.003
1.7955,0.003
1.796,0.003
1.7965,0.003
1.797,0.0015
1.7975,0.003
1.798,0.003
1.7985,0.003
1.799,0.0015
1.7995,0.003
1.8,0.003
1.8005,0.003
1.801,0.003
1.8015,0.003
1.802,0.003
1.8025,0.003
1.803,0.003
1.8035,0.003
1.804,0.0015
1.8045,0.003
1.805,0.003
1.8055,0.003
1.806,0.003
1.8065,0.0015
1.807,0.003
1.8075,0.0015
1.808,0.003
1.8085,0.0015
1.809,0.003
1.8095,0.003
1.81,0.003
1.8105,0.003
1.811,0.003
1.8115,0.003
1.812,0.003
1.8125,0.003
1.813,0.003
1.8135,0.0015
1.814,0.003
1.8145,0.003
1.815,0.003
1.8155,0.003
1.816,0.0015
1.8165,0.0015
1.817,0.003
1.8175,0.003
1.818,0.0015
1.8185,0.003
1.819,0.0015
1.8195,0.003
1.82,0.003
1.8205,0.003
1.821,0.003
1.8215,0.003
1.822,0.003
1.8225,0.003
1.823,0.003
1.8235,0.0015
1.824,0.003
1.8245,0.0015
1.825,0.003
1.8255,0.0015
1.826,0.0015
1.8265,0.003
1.827,0.0015
1.8275,0.0015
1.828,0.0015
1.8285,0.0015
1.829,0.0015
1.8295,0.003
1.83,0.0015
1.8305,0.0015
1.831,0.0015
1.8315,0.0015
1.832,0.0015
1.8325,0.0015
1.833,0.0015
1.8335,0.0015
1.834,0.0015
1.8345,0.0015
1.835,0.0015
1.8355,0.0015
1.836,0.003
1.8365,0.0015
1.837,0.0015
1.8375,0.0015
1.838,0.003
1.8385,0.0015
1.839,0.0015
1.8395,0.0015
1.84,0.0015
1.8405,0.0015
1.841,0.0015
1.8415,0.0015
1.842,0.003
1.8425,0.003
1.843,0.003
1.8435,0.0015
1.844,0.003
1.8445,0.0015
1.845,0.0015
1.8455,0.003
1.846,0.0015
1.8465,0.0015
1.847,0.003
1.8475,0.003
1.848,0.003
1.8485,0.003
1.849,0.0015
1.8495,0.0015
1.85,0.003
1.8505,0.003
1.851,0.003
1.8515,0.003
1.852,0.0015
1.8525,0.003
1.853,0.0015
1.8535,0.003
1.854,0.003
1.8545,0.003
1.855,0.003
1.8555,0.003
1.856,0.003
1.8565,0.003
1.857,0.003
1.8575,0.003
1.858,0.0015
1.8585,0.003
1.859,0.0015
1.8595,0.003
1.86,0.003
1.8605,0.003
1.861,0.003
1.8615,0.003
1.862,0.003
1.8625,0.0015
1.863,0.003
1.8635,0.003
1.864,0.003
1.8645,0.003
1.865,0.003
1.8655,0.003
1.866,0.003
1.8665,0.003
1.867,0.003
1.8675,0.0015
1.868,0.003
1.8685,0.0015
1.869,0.003
1.8695,0.003
1.87,0.003
1.8705,0.0015
1.871,0.003
1.8715,0.003
1.872,0.0015
1.8725,0.003
1.873,0.003
1.8735,0.003
1.874,0.003
1.8745,0.003
1.875,0.003
1.8755,0.003
1.876,0.003
1.8765,0.0015
1.877,0.003
1.8775,0.003
1.878,0.003
1.8785,0.003
1.879,0.003
1.8795,0.003
1.88,0.003
1.8805,0.003
1.881,0.003
1.8815,0.003
1.882,0.003
1.8825,0.003
1.883,0.003
1.8835,0.003
1.884,0.003
1.8845,0.003
1.885,0.003
1.8855,0.0015
1.886,0.003
1.8865,0.003
1.887,0.003
1.8875,0.003
1.888,0.003
1.8885,0.0015
1.889,0.003
1.8895,0.003
1.89,0.0015
1.8905,0.0015
1.891,0.0015
1.8915,0.003
1.892,0.003
1.8925,0.003
1.893,0.003
1.8935,0.0015
1.894,0.003
1.8945,0.003
1.895,0.003
1.8955,0.0015
1.896,0.003
1.8965,0.003
1.897,0.003
1.8975,0.0015
1.898,0.003
1.8985,0.003
1.899,0.0015
1.8995,0.003
1.9,0.003
1.9005,0.003
1.901,0.003
1.9015,0.003
1.902,0.003
1.9025,0.003
1.903,0.003
1.9035,0.003
1.904,0.003
1.9045,0.003
1.905,0.003
1.9055,0.003
1.906,0.003
1.9065,0.003
1.907,0.003
1.9075,0.003
1.908,0.003
1.9085,0.0045
1.909,0.003
1.9095,0.003
1.91,0.003
1.9105,0.003
1.911,0.0045
1.9115,0.003
1.912,0.003
1.9125,0.003
1.913,0.003
1.9135,0.003
1.914,0.003
1.9145,0.003
1.915,0.003
1.9155,0.003
1.916,0.003
1.9165,0.003
1.917,0.0045
1.9175,0.003
1.918,0.003
1.9185,0.003
1.919,0.003
1.9195,0.003
1.92,0.0045
1.9205,0.0045
1.921,0.003
1.9215,0.003
1.922,0.003
1.9225,0.003
1.923,0.003
1.9235,0.003
1.924,0.003
1.9245,0.003
1.925,0.003
1.9255,0.003
1.926,0.003
1.9265,0.003
1.927,0.003
1.9275,0.003
1.928,0.003
1.9285,0.0045
1.929,0.003
1.9295,0.0045
1.93,0.003
1.9305,0.003
1.931,0.003
1.9315,0.003
1.932,0.003
1.9325,0.003
1.933,0.003
1.9335,0.003
1.934,0.003
1.9345,0.003
1.935,0.003
1.9355,0.003
1.936,0.003
1.9365,0.003
1.937,0.003
1.9375,0.003
1.938,0.003
1.9385,0.003
1.939,0.003
1.9395,0.003
1.94,0.003
1.9405,0.003
1.941,0.003
1.9415,0.003
1.942,0.0045
1.9425,0.003
1.943,0.003
1.9435,0.003
1.944,0.003
1.9445,0.003
1.945,0.003
1.9455,0.003
1.946,0.003
1.9465,0.003
1.947,0.003
1.9475,0.003
1.948,0.003
1.9485,0.003
1.949,0.003
1.9495,0.003
1.95,0.003
1.9505,0.003
1.951,0.0015
1.9515,0.003
1.952,0.003
1.9525,0.0015
1.953,0.0045
1.9535,0.003
1.954,0.003
1.9545,0.003
1.955,0.003
1.9555,0.003
1.956,0.003
1.9565,0.003
1.957,0.0015
1.9575,0.003
1.958,0.0015
1.9585,0.0015
1.959,0.003
1.9595,0.003
1.96,0.003
1.9605,0.0015
1.961,0.003
1.9615,0.003
1.962,0.003
1.9625,0.003
1.963,0.003
1.9635,0.0045
1.964,0.0045
1.9645,0.0045
1.965,0.0045
1.9655,0.0045
1.966,0.006
1.9665,0.006
1.967,0.006
1.9675,0.009
1.968,0.009
1.9685,0.0105
1.969,0.0105
1.9695,0.012
1.97,0.0135
1.9705,0.015
1.971,0.0165
1.9715,0.0165
1.972,0.018
1.9725,0.021
1.973,0.0225
1.9735,0.024
1.974,0.0255
1.9745,0.027
1.975,0.0285
1.9755,0.0315
1.976,0.0375
1.9765,0.0435
1.977,0.057
1.9775,0.069
1.978,0.081
1.9785,0.093
1.979,0.1065
1.9795,0.1185
1.98,0.1335
1.9805,0.1455
1.981,0.1605
1.9815,0.174
1.982,0.189
1.9825,0.204
1.983,0.219
1.9835,0.234
1.984,0.249
1.9845,0.267
1.985,0.282
1.9855,0.2985
1.986,0.3135
1.9865,0.33
1.987,0.345
1.9875,0.36
1.988,0.3735
1.9885,0.3885
1.989,0.4005
1.9895,0.414
1.99,0.423
1.9905,0.4305
1.991,0.438
1.9915,0.4425
1.992,0.4455
1.9925,0.447
1.993,0.444
1.9935,0.438
1.994,0.432
1.9945,0.4215
1.995,0.4095
1.9955,0.393
1.996,0.3735
1.9965,0.3525
1.997,0.327
1.9975,0.297
1.998,0.267
1.9985,0.234
1.999,0.198
1.9995,0.162
2,0.1215
2.0005,0.0825
2.001,0.042
2.0015,0.003
2.002,-0.036
2.0025,-0.0735
2.003,-0.1125
2.0035,-0.147
2.004,-0.183
2.0045,-0.216
2.005,-0.246
2.0055,-0.2745
2.006,-0.3015
2.0065,-0.3255
2.007,-0.345
2.0075,-0.3645
2.008,-0.3795
2.0085,-0.393
2.009,-0.4035
2.0095,-0.4125
2.01,-0.417
2.0105,-0.4215
2.011,-0.42
2.0115,-0.4185
2.012,-0.4155
2.0125,-0.408
2.013,-0.4005
2.0135,-0.3915
2.014,-0.381
2.0145,-0.3705
2.015,-0.3585
2.0155,-0.3435
2.016,-0.33
2.0165,-0.3165
2.017,-0.3015
2.0175,-0.2865
2.018,-0.27
2.0185,-0.255
2.019,-0.24
2.0195,-0.2265
2.02,-0.2115
2.0205,-0.1965
2.021,-0.1815
2.0215,-0.168
2.022,-0.153
2.0225,-0.141
2.023,-0.129
2.0235,-0.1155
2.024,-0.1005
2.0245,-0.0885
2.025,-0.0765
2.0255,-0.066
2.026,-0.054
2.0265,-0.042
2.027,-0.03
2.0275,-0.018
2.028,-0.006
2.0285,0.0045
2.029,0.0165
2.0295,0.0285
2.03,0.039
2.0305,0.051
2.031,0.063
2.0315,0.075
2.032,0.087
2.0325,0.099
2.033,0.111
2.0335,0.1245
2.034,0.138
2.0345,0.15
2.035,0.162
2.0355,0.1755
2.036,0.1905
2.0365,0.204
2.037,0.2175
2.0375,0.2325
2.038,0.246
2.0385,0.2625
2.039,0.276
2.0395,0.291
2.04,0.306
2.0405,0.3195
2.041,0.333
2.0415,0.345
2.042,0.357
2.0425,0.3705
2.043,0.3795
2.0435,0.39
2.044,0.399
2.0445,0.4035
2.045,0.4095
2.0455,0.414
2.046,0.414
2.0465,0.414
2.047,0.411
2.0475,0.405
2.048,0.396
2.0485,0.3855
2.049,0.372
2.0495,0.357
2.05,0.339
2.0505,0.3195
2.051,0.2955
2.0515,0.27
2.052,0.2415
2.0525,0.2115
2.053,0.18
2.0535,0.147
2.054,0.1125
2.0545,0.0765
2.055,0.0405
2.0555,0.0045
2.056,-0.033
2.0565,-0.069
2.057,-0.105
2.0575,-0.1395
2.058,-0.174
2.0585,-0.2055
2.059,-0.2355
2.0595,-0.264
2.06,-0.2895
2.0605,-0.3135
2.061,-0.3345
2.0615,-0.351
2.062,-0.3675
2.0625,-0.381
2.063,-0.3915
2.0635,-0.399
2.064,-0.4035
2.0645,-0.405
2.065,-0.4065
2.0655,-0.405
2.066,-0.402
2.0665,-0.3945
2.067,-0.3885
2.0675,-0.3795
2.068,-0.369
2.0685,-0.3585
2.069,-0.3465
2.0695,-0.3345
2.07,-0.321
2.0705,-0.306
2.071,-0.2925
2.0715,-0.279
2.072,-0.264
2.0725,-0.2475
2.073,-0.2355
2.0735,-0.219
2.074,-0.2055
2.0745,-0.1905
2.075,-0.177
2.0755,-0.1635
2.076,-0.15
2.0765,-0.138
2.077,-0.1245
2.0775,-0.1125
2.078,-0.099
2.0785,-0.087
2.079,-0.075
2.0795,-0.0645
2.08,-0.0525
2.0805,-0.042
2.081,-0.03
2.0815,-0.0195
2.082,-0.009
2.0825,0.003
2.083,0.0135
2.0835,0.024
2.084,0.036
2.0845,0.0465
2.085,0.057
2.0855,0.069
2.086,0.081
2.0865,0.093
2.087,0.1035
2.0875,0.117
2.088,0.1275
2.0885,0.1425
2.089,0.153
2.0895,0.1665
2.09,0.18
2.0905,0.192
2.091,0.2055
2.0915,0.2205
2.092,0.234
2.0925,0.249
2.093,0.2625
2.0935,0.276
2.094,0.2895
2.0945,0.3045
2.095,0.3165
2.0955,0.3285
2.096,0.3405
2.0965,0.3525
2.097,0.3645
2.0975,0.3735
2.098,0.381
2.0985,0.3885
2.099,0.393
2.0995,0.396
2.1,0.3975
2.1005,0.3975
2.101,0.3945
2.1015,0.39
2.102,0.3825
2.1025,0.372
2.103,0.36
2.1035,0.3435
2.104,0.327
2.1045,0.3075
2.105,0.2835
2.1055,0.2595
2.106,0.234
2.1065,0.204
2.107,0.1755
2.1075,0.144
2.108,0.111
2.1085,0.0765
2.109,0.0435
2.1095,0.0075
2.11,-0.0255
2.1105,-0.0585
2.111,-0.0915
2.1115,-0.1245
2.112,-0.156
2.1125,-0.186
2.113,-0.2145
2.1135,-0.24
2.114,-0.264
2.1145,-0.2865
2.115,-0.3075
2.1155,-0.324
2.116,-0.339
2.1165,-0.3525
2.117,-0.363
2.1175,-0.372
2.118,-0.3765
2.1185,-0.3795
2.119,-0.3825
2.1195,-0.3825
2.12,-0.3795
2.1205,-0.375
2.121,-0.369
2.1215,-0.363
2.122,-0.354
2.1225,-0.3465
2.123,-0.336
2.1235,-0.324
2.124,-0.312
2.1245,-0.3
2.125,-0.288
2.1255,-0.2745
2.126,-0.261
2.1265,-0.2475
2.127,-0.234
2.1275,-0.2205
2.128,-0.207
2.1285,-0.1935
2.129,-0.18
2.1295,-0.1665
2.13,-0.1545
2.1305,-0.141
2.131,-0.1275
2.1315,-0.1155
2.132,-0.1035
2.1325,-0.0915
2.133,-0.0795
2.1335,-0.069
2.134,-0.057
2.1345,-0.045
2.135,-0.0345
2.1355,-0.0225
2.136,-0.0105
2.1365,0
2.137,0.0105
2.1375,0.021
2.138,0.033
2.1385,0.0435
2.139,0.0555
2.1395,0.066
2.14,0.0765
2.1405,0.0885
2.141,0.1005
2.1415,0.1125
2.142,0.1245
2.1425,0.1365
2.143,0.1485
2.1435,0.1605
2.144,0.1725
2.1445,0.186
2.145,0.198
2.1455,0.2115
2.146,0.225
2.1465,0.2385
2.147,0.249
2.1475,0.264
2.148,0.276
2.1485,0.288
2.149,0.3
2.1495,0.312
2.15,0.3225
2.1505,0.333
2.151,0.342
2.1515,0.351
2.152,0.3585
2.1525,0.3645
2.153,0.369
2.1535,0.372
2.154,0.375
2.1545,0.375
2.155,0.372
2.1555,0.369
2.156,0.3615
2.1565,0.351
2.157,0.3405
2.1575,0.3285
2.158,0.312
2.1585,0.294
2.159,0.2745
2.1595,0.2535
2.16,0.2295
2.1605,0.2025
2.161,0.1755
2.1615,0.147
2.162,0.1155
2.1625,0.0855
2.163,0.0525
2.1635,0.021
2.164,-0.0105
2.1645,-0.0435
2.165,-0.075
2.1655,-0.1065
2.166,-0.1365
2.1665,-0.165
2.167,-0.192
2.1675,-0.2175
2.168,-0.2415
2.1685,-0.264
2.169,-0.2835
2.1695,-0.3015
2.17,-0.318
2.1705,-0.3315
2.171,-0.342
2.1715,-0.351
2.172,-0.357
2.1725,-0.3615
2.173,-0.363
2.1735,-0.363
2.174,-0.3615
2.1745,-0.36
2.175,-0.354
2.1755,-0.348
2.176,-0.3405
2.1765,-0.333
2.177,-0.3225
2.1775,-0.312
2.178,-0.3015
2.1785,-0.291
2.179,-0.2775
2.1795,-0.2655
2.18,-0.2535
2.1805,-0.24
2.181,-0.228
2.1815,-0.2145
2.182,-0.201
2.1825,-0.189
2.183,-0.177
2.1835,-0.1635
2.184,-0.1515
2.1845,-0.1395
2.185,-0.1275
2.1855,-0.1155
2.186,-0.1035
2.1865,-0.0915
2.187,-0.081
2.1875,-0.069
2.188,-0.0585
2.1885,-0.048
2.189,-0.036
2.1895,-0.027
2.19,-0.015
2.1905,-0.0045
2.191,0.006
2.1915,0.0165
2.192,0.027
2.1925,0.0375
2.193,0.048
2.1935,0.0585
2.194,0.0705
2.1945,0.0825
2.195,0.093
2.1955,0.105
2.196,0.117
2.1965,0.1275
2.197,0.1395
2.1975,0.1515
2.198,0.162
2.1985,0.174
2.199,0.1875
2.1995,0.1995
2.2,0.213
2.2005,0.225
2.201,0.237
2.2015,0.249
2.202,0.261
2.2025,0.273
2.203,0.2835
2.2035,0.2955
2.204,0.3045
2.2045,0.315
2.205,0.324
2.2055,0.3315
2.206,0.339
2.2065,0.3435
2.207,0.348
2.2075,0.351
2.208,0.3525
2.2085,0.3525
2.209,0.3495
2.2095,0.3465
2.21,0.339
2.2105,0.33
2.211,0.321
2.2115,0.3075
2.212,0.2925
2.2125,0.2775
2.213,0.2595
2.2135,0.2385
2.214,0.216
2.2145,0.1905
2.215,0.1665
2.2155,0.1395
2.216,0.1125
2.2165,0.0825
2.217,0.054
2.2175,0.024
2.218,-0.0045
2.2185,-0.0345
2.219,-0.063
2.2195,-0.093
2.22,-0.12
2.2205,-0.1455
2.221,-0.171
2.2215,-0.1935
2.222,-0.216
2.2225,-0.237
2.223,-0.2565
2.2235,-0.2715
2.224,-0.2865
2.2245,-0.3
2.225,-0.312
2.2255,-0.3195
2.226,-0.327
2.2265,-0.333
2.227,-0.3345
2.2275,-0.336
2.228,-0.336
2.2285,-0.333
2.229,-0.3315
2.2295,-0.327
2.23,-0.321
2.2305,-0.315
2.231,-0.306
2.2315,-0.2985
2.232,-0.288
2.2325,-0.279
2.233,-0.2685
2.2335,-0.258
2.234,-0.246
2.2345,-0.234
2.235,-0.2235
2.2355,-0.2115
2.236,-0.1995
2.2365,-0.1875
2.237,-0.1755
2.2375,-0.162
2.238,-0.1515
2.2385,-0.1395
2.239,-0.1275
2.2395,-0.1155
2.24,-0.105
2.2405,-0.0945
2.241,-0.084
2.2415,-0.072
2.242,-0.06
2.2425,-0.0495
2.243,-0.039
2.2435,-0.0285
2.244,-0.018
2.2445,-0.0075
2.245,0.0015
2.2455,0.0135
2.246,0.0225
2.2465,0.0345
2.247,0.045
2.2475,0.054
2.248,0.0645
2.2485,0.078
2.249,0.0885
2.2495,0.099
2.25,0.1095
2.2505,0.1215
2.251,0.132
2.2515,0.144
2.252,0.1545
2.2525,0.165
2.253,0.177
2.2535,0.189
2.254,0.201
2.2545,0.213
2.255,0.2235
2.2555,0.2355
2.256,0.246
2.2565,0.2565
2.257,0.267
2.2575,0.2775
2.258,0.2865
2.2585,0.294
2.259,0.303
2.2595,0.3105
2.26,0.3165
2.2605,0.321
2.261,0.3255
2.2615,0.3285
2.262,0.3285
2.2625,0.3285
2.263,0.3255
2.2635,0.3225
2.264,0.318
2.2645,0.3105
2.265,0.3015
2.2655,0.291
2.266,0.2775
2.2665,0.2625
2.267,0.2445
2.2675,0.228
2.268,0.2085
2.2685,0.1875
2.269,0.165
2.2695,0.141
2.27,0.1155
2.2705,0.09
2.271,0.0645
2.2715,0.0375
2.272,0.009
2.2725,-0.018
2.273,-0.0435
2.2735,-0.0705
2.274,-0.096
2.2745,-0.1215
2.275,-0.147
2.2755,-0.168
2.276,-0.1905
2.2765,-0.2115
2.277,-0.2295
2.2775,-0.246
2.278,-0.2625
2.2785,-0.276
2.279,-0.2865
2.2795,-0.297
2.28,-0.306
2.2805,-0.3105
2.281,-0.3165
2.2815,-0.3195
2.282,-0.3195
2.2825,-0.3195
2.283,-0.318
2.2835,-0.3135
2.284,-0.309
2.2845,-0.303
2.285,-0.2955
2.2855,-0.2895
2.286,-0.2805
2.2865,-0.27
2.287,-0.2625
2.2875,-0.2505
2.288,-0.2415
2.2885,-0.2295
2.289,-0.219
2.2895,-0.2085
2.29,-0.1965
2.2905,-0.186
2.291,-0.174
2.2915,-0.162
2.292,-0.1515
2.2925,-0.1395
2.293,-0.1275
2.2935,-0.117
2.294,-0.105
2.2945,-0.0945
2.295,-0.084
2.2955,-0.0735
2.296,-0.063
2.2965,-0.051
2.297,-0.042
2.2975,-0.0315
2.298,-0.021
2.2985,-0.0105
2.299,0
2.2995,0.009
2.3,0.0195
2.3005,0.03
2.301,0.0405
2.3015,0.0495
2.302,0.06
2.3025,0.0705
2.303,0.0795
2.3035,0.09
2.304,0.102
2.3045,0.1125
2.305,0.123
2.3055,0.1335
2.306,0.1455
2.3065,0.1545
2.307,0.1665
2.3075,0.1785
2.308,0.1905
2.3085,0.201
2.309,0.21
2.3095,0.222
2.31,0.2325
2.3105,0.2415
2.311,0.252
2.3115,0.261
2.312,0.27
2.3125,0.279
2.313,0.288
2.3135,0.294
2.314,0.3
2.3145,0.3045
2.315,0.3075
2.3155,0.3105
2.316,0.312
2.3165,0.3135
2.317,0.312
2.3175,0.3075
2.318,0.303
2.3185,0.297
2.319,0.2895
2.3195,0.279
2.32,0.267
2.3205,0.2535
2.321,0.2385
2.3215,0.222
2.322,0.204
2.3225,0.183
2.323,0.162
2.3235,0.1395
2.324,0.117
2.3245,0.093
2.325,0.069
2.3255,0.0435
2.326,0.0165
2.3265,-0.009
2.327,-0.0345
2.3275,-0.06
2.328,-0.0855
2.3285,-0.108
2.329,-0.1305
2.3295,-0.153
2.33,-0.174
2.3305,-0.192
2.331,-0.2115
2.3315,-0.228
2.332,-0.243
2.3325,-0.255
2.333,-0.2655
2.3335,-0.276
2.334,-0.2835
2.3345,-0.2895
2.335,-0.2955
2.3355,-0.2985
2.336,-0.3
2.3365,-0.3
2.337,-0.3
2.3375,-0.297
2.338,-0.294
2.3385,-0.288
2.339,-0.2835
2.3395,-0.276
2.34,-0.2685
2.3405,-0.261
2.341,-0.252
2.3415,-0.243
2.342,-0.234
2.3425,-0.2235
2.343,-0.213
2.3435,-0.2025
2.344,-0.192
2.3445,-0.1815
2.345,-0.171
2.3455,-0.1605
2.346,-0.15
2.3465,-0.1395
2.347,-0.129
2.3475,-0.1185
2.348,-0.1065
2.3485,-0.096
2.349,-0.0855
2.3495,-0.0765
2.35,-0.0645
2.3505,-0.054
2.351,-0.045
2.3515,-0.036
2.352,-0.024
2.3525,-0.015
2.353,-0.006
2.3535,0.0045
2.354,0.015
2.3545,0.0255
2.355,0.033
2.3555,0.045
2.356,0.054
2.3565,0.066
2.357,0.075
2.3575,0.0855
2.358,0.096
2.3585,0.1065
2.359,0.117
2.3595,0.1275
2.36,0.138
2.3605,0.147
2.361,0.1575
2.3615,0.1695
2.362,0.1785
2.3625,0.1905
2.363,0.1995
2.3635,0.21
2.364,0.219
2.3645,0.2295
2.365,0.2385
2.3655,0.2475
2.366,0.2565
2.3665,0.2625
2.367,0.27
2.3675,0.2775
2.368,0.2835
2.3685,0.288
2.369,0.291
2.3695,0.2925
2.37,0.294
2.3705,0.2955
2.371,0.294
2.3715,0.291
2.372,0.2865
2.3725,0.2805
2.373,0.273
2.3735,0.264
2.374,0.252
2.3745,0.2415
2.375,0.2265
2.3755,0.213
2.376,0.195
2.3765,0.177
2.377,0.1575
2.3775,0.1365
2.378,0.1155
2.3785,0.0945
2.379,0.072
2.3795,0.048
2.38,0.024
2.3805,0.0015
2.381,-0.0225
2.3815,-0.0465
2.382,-0.069
2.3825,-0.0915
2.383,-0.114
2.3835,-0.135
2.384,-0.1545
2.3845,-0.1725
2.385,-0.1905
2.3855,-0.2055
2.386,-0.2205
2.3865,-0.2355
2.387,-0.246
2.3875,-0.2565
2.388,-0.2655
2.3885,-0.27
2.389,-0.276
2.3895,-0.2805
2.39,-0.2835
2.3905,-0.285
2.391,-0.2835
2.3915,-0.282
2.392,-0.2805
2.3925,-0.276
2.393,-0.2715
2.3935,-0.2655
2.394,-0.2595
2.3945,-0.252
2.395,-0.243
2.3955,-0.237
2.396,-0.228
2.3965,-0.219
2.397,-0.2085
2.3975,-0.198
2.398,-0.189
2.3985,-0.1785
2.399,-0.1695
2.3995,-0.1575
2.4,-0.147
2.4005,-0.138
2.401,-0.1275
2.4015,-0.117
2.402,-0.1065
2.4025,-0.096
2.403,-0.087
2.4035,-0.0765
2.404,-0.066
2.4045,-0.0555
2.405,-0.0465
2.4055,-0.036
2.406,-0.027
2.4065,-0.0165
2.407,-0.0075
2.4075,0.003
2.408,0.012
2.4085,0.0225
2.409,0.0315
2.4095,0.042
2.41,0.051
2.4105,0.06
2.411,0.069
2.4115,0.0795
2.412,0.09
2.4125,0.1005
2.413,0.1095
2.4135,0.12
2.414,0.129
2.4145,0.1395
2.415,0.1485
2.4155,0.159
2.416,0.1695
2.4165,0.18
2.417,0.189
2.4175,0.198
2.418,0.21
2.4185,0.2175
2.419,0.2265
2.4195,0.234
2.42,0.243
2.4205,0.249
2.421,0.2565
2.4215,0.2625
2.422,0.2685
2.4225,0.2715
2.423,0.276
2.4235,0.2775
2.424,0.279
2.4245,0.279
2.425,0.2775
2.4255,0.276
2.426,0.2715
2.4265,0.267
2.427,0.2595
2.4275,0.2505
2.428,0.243
2.4285,0.2295
2.429,0.219
2.4295,0.204
2.43,0.189
2.4305,0.1725
2.431,0.156
2.4315,0.1365
2.432,0.117
2.4325,0.096
2.433,0.075
2.4335,0.0525
2.434,0.0315
2.4345,0.009
2.435,-0.012
2.4355,-0.0345
2.436,-0.057
2.4365,-0.078
2.437,-0.0975
2.4375,-0.1185
2.438,-0.138
2.4385,-0.156
2.439,-0.1725
2.4395,-0.189
2.44,-0.204
2.4405,-0.216
2.441,-0.2265
2.4415,-0.237
2.442,-0.246
2.4425,-0.2535
2.443,-0.261
2.4435,-0.2655
2.444,-0.267
2.4445,-0.2685
2.445,-0.27
2.4455,-0.2685
2.446,-0.267
2.4465,-0.264
2.447,-0.2595
2.4475,-0.255
2.448,-0.249
2.4485,-0.243
2.449,-0.2355
2.4495,-0.228
2.45,-0.2205
2.4505,-0.2115
2.451,-0.204
2.4515,-0.195
2.452,-0.1845
2.4525,-0.1755
2.453,-0.165
2.4535,-0.156
2.454,-0.147
2.4545,-0.135
2.455,-0.126
2.4555,-0.1155
2.456,-0.1065
2.4565,-0.096
2.457,-0.087
2.4575,-0.0765
2.458,-0.0675
2.4585,-0.0585
2.459,-0.048
2.4595,-0.039
2.46,-0.0285
2.4605,-0.0195
2.461,-0.0105
2.4615,0
2.462,0.009
2.4625,0.018
2.463,0.027
2.4635,0.0375
2.464,0.0465
2.4645,0.0555
2.465,0.066
2.4655,0.0735
2.466,0.084
2.4665,0.093
2.467,0.1035
2.4675,0.114
2.468,0.1215
2.4685,0.132
2.469,0.141
2.4695,0.15
2.47,0.1605
2.4705,0.1695
2.471,0.1785
2.4715,0.1875
2.472,0.1965
2.4725,0.204
2.473,0.213
2.4735,0.2205
2.474,0.228
2.4745,0.2355
2.475,0.2415
2.4755,0.2475
2.476,0.2535
2.4765,0.2565
2.477,0.261
2.4775,0.2625
2.478,0.2655
2.4785,0.264
2.479,0.264
2.4795,0.2625
2.48,0.258
2.4805,0.2535
2.481,0.2475
2.4815,0.24
2.482,0.231
2.4825,0.2205
2.483,0.2085
2.4835,0.1965
2.484,0.183
2.4845,0.1665
2.485,0.1515
2.4855,0.135
2.486,0.117
2.4865,0.0975
2.487,0.0765
2.4875,0.057
2.488,0.036
2.4885,0.015
2.489,-0.0045
2.4895,-0.027
2.49,-0.045
2.4905,-0.066
2.491,-0.087
2.4915,-0.105
2.492,-0.123
2.4925,-0.141
2.493,-0.1575
2.4935,-0.1725
2.494,-0.186
2.4945,-0.198
2.495,-0.2115
2.4955,-0.2205
2.496,-0.2295
2.4965,-0.237
2.497,-0.243
2.4975,-0.2475
2.498,-0.2505
2.4985,-0.255
2.499,-0.2565
2.4995,-0.2565
2.5,-0.2535
2.5005,-0.252
2.501,-0.2475
2.5015,-0.2445
2.502,-0.24
2.5025,-0.234
2.503,-0.228
2.5035,-0.222
2.504,-0.213
2.5045,-0.2055
2.505,-0.198
2.5055,-0.1905
2.506,-0.1815
2.5065,-0.1725
2.507,-0.1635
2.5075,-0.153
2.508,-0.144
2.5085,-0.135
2.509,-0.126
2.5095,-0.1155
2.51,-0.1065
2.5105,-0.096
2.511,-0.087
2.5115,-0.078
2.512,-0.0675
2.5125,-0.06
2.513,-0.0495
2.5135,-0.0405
2.514,-0.0315
2.5145,-0.0225
2.515,-0.0135
2.5155,-0.0045
2.516,0.0045
2.5165,0.015
2.517,0.0225
2.5175,0.033
2.518,0.042
2.5185,0.0525
2.519,0.06
2.5195,0.069
2.52,0.078
2.5205,0.087
2.521,0.096
2.5215,0.1065
2.522,0.1155
2.5225,0.1245
2.523,0.1335
2.5235,0.1425
2.524,0.1515
2.5245,0.1605
2.525,0.1695
2.5255,0.1785
2.526,0.1875
2.5265,0.1935
2.527,0.2025
2.5275,0.21
2.528,0.2175
2.5285,0.2235
2.529,0.231
2.5295,0.237
2.53,0.2415
2.5305,0.2445
2.531,0.2475
2.5315,0.249
2.532,0.252
2.5325,0.252
2.533,0.252
2.5335,0.249
2.534,0.246
2.5345,0.2415
2.535,0.237
2.5355,0.231
2.536,0.222
2.5365,0.213
2.537,0.2025
2.5375,0.1905
2.538,0.177
2.5385,0.162
2.539,0.147
2.5395,0.132
2.54,0.114
2.5405,0.0975
2.541,0.078
2.5415,0.06
2.542,0.042
2.5425,0.021
2.543,0
2.5435,-0.018
2.544,-0.0375
2.5445,-0.0555
2.545,-0.075
2.5455,-0.093
2.546,-0.111
2.5465,-0.1275
2.547,-0.1425
2.5475,-0.1575
2.548,-0.171
2.5485,-0.183
2.549,-0.1935
2.5495,-0.204
2.55,-0.2145
2.5505,-0.222
2.551,-0.228
2.5515,-0.2325
2.552,-0.237
2.5525,-0.24
2.553,-0.2415
2.5535,-0.2415
2.554,-0.2415
2.5545,-0.2385
2.555,-0.237
2.5555,-0.234
2.556,-0.231
2.5565,-0.225
2.557,-0.219
2.5575,-0.213
2.558,-0.207
2.5585,-0.201
2.559,-0.192
2.5595,-0.186
2.56,-0.177
2.5605,-0.168
2.561,-0.159
2.5615,-0.1515
2.562,-0.1425
2.5625,-0.1335
2.563,-0.1245
2.5635,-0.1155
2.564,-0.105
2.5645,-0.096
2.565,-0.087
2.5655,-0.078
2.566,-0.069
2.5665,-0.06
2.567,-0.051
2.5675,-0.042
2.568,-0.0345
2.5685,-0.0255
2.569,-0.015
2.5695,-0.006
2.57,0.0015
2.5705,0.0105
2.571,0.0195
2.5715,0.0285
2.572,0.0375
2.5725,0.048
2.573,0.0555
2.5735,0.063
2.574,0.0735
2.5745,0.0825
2.575,0.0915
2.5755,0.099
2.576,0.1095
2.5765,0.1185
2.577,0.1275
2.5775,0.1365
2.578,0.144
2.5785,0.1515
2.579,0.1605
2.5795,0.1695
2.58,0.1755
2.5805,0.1845
2.581,0.192
2.5815,0.1995
2.582,0.2055
2.5825,0.2115
2.583,0.2175
2.5835,0.222
2.584,0.2265
2.5845,0.231
2.585,0.234
2.5855,0.237
2.586,0.237
2.5865,0.2385
2.587,0.237
2.5875,0.2355
2.588,0.2325
2.5885,0.2295
2.589,0.225
2.5895,0.2175
2.59,0.2115
2.5905,0.2025
2.591,0.1935
2.5915,0.183
2.592,0.171
2.5925,0.1575
2.593,0.1425
2.5935,0.129
2.594,0.1125
2.5945,0.0975
2.595,0.0825
2.5955,0.063
2.596,0.045
2.5965,0.027
2.597,0.009
2.5975,-0.009
2.598,-0.0285
2.5985,-0.0465
2.599,-0.0645
2.5995,-0.0795
2.6,-0.096
2.6005,-0.1125
2.601,-0.1275
2.6015,-0.141
2.602,-0.156
2.6025,-0.168
2.603,-0.1785
2.6035,-0.189
2.604,-0.198
2.6045,-0.207
2.605,-0.213
2.6055,-0.219
2.606,-0.222
2.6065,-0.225
2.607,-0.228
2.6075,-0.2295
2.608,-0.2295
2.6085,-0.2295
2.609,-0.228
2.6095,-0.2235
2.61,-0.2205
2.6105,-0.216
2.611,-0.2115
2.6115,-0.207
2.612,-0.201
2.6125,-0.1935
2.613,-0.1875
2.6135,-0.1815
2.614,-0.1725
2.6145,-0.165
2.615,-0.156
2.6155,-0.1485
2.616,-0.1395
2.6165,-0.1305
2.617,-0.123
2.6175,-0.114
2.618,-0.105
2.6185,-0.0975
2.619,-0.0885
2.6195,-0.0795
2.62,-0.0705
2.6205,-0.0615
2.621,-0.0525
2.6215,-0.045
2.622,-0.036
2.6225,-0.027
2.623,-0.018
2.6235,-0.009
2.624,-0.0015
2.6245,0.0075
2.625,0.015
2.6255,0.024
2.626,0.033
2.6265,0.042
2.627,0.0495
2.6275,0.0585
2.628,0.069
2.6285,0.0765
2.629,0.0855
2.6295,0.093
2.63,0.102
2.6305,0.1095
2.631,0.1185
2.6315,0.1275
2.632,0.135
2.6325,0.144
2.633,0.1515
2.6335,0.1605
2.634,0.1665
2.6345,0.174
2.635,0.1815
2.6355,0.1875
2.636,0.195
2.6365,0.201
2.637,0.2055
2.6375,0.21
2.638,0.216
2.6385,0.219
2.639,0.222
2.6395,0.225
2.64,0.2265
2.6405,0.228
2.641,0.2265
2.6415,0.225
2.642,0.2235
2.6425,0.2205
2.643,0.2145
2.6435,0.21
2.644,0.204
2.6445,0.1965
2.645,0.1875
2.6455,0.177
2.646,0.1665
2.6465,0.1545
2.647,0.1425
2.6475,0.126
2.648,0.1125
2.6485,0.0975
2.649,0.0825
2.6495,0.066
2.65,0.0495
2.6505,0.0315
2.651,0.0135
2.6515,-0.0015
2.652,-0.0195
2.6525,-0.0375
2.653,-0.054
2.6535,-0.069
2.654,-0.0855
2.6545,-0.1005
2.655,-0.117
2.6555,-0.1275
2.656,-0.141
2.6565,-0.153
2.657,-0.165
2.6575,-0.174
2.658,-0.1845
2.6585,-0.192
2.659,-0.1995
2.6595,-0.2055
2.66,-0.2085
2.6605,-0.213
2.661,-0.2145
2.6615,-0.216
2.662,-0.2175
2.6625,-0.2175
2.663,-0.216
2.6635,-0.2145
2.664,-0.2115
2.6645,-0.207
2.665,-0.204
2.6655,-0.1995
2.666,-0.1935
2.6665,-0.1875
2.667,-0.183
2.6675,-0.1755
2.668,-0.168
2.6685,-0.1605
2.669,-0.153
2.6695,-0.1455
2.67,-0.138
2.6705,-0.1305
2.671,-0.123
2.6715,-0.114
2.672,-0.105
2.6725,-0.096
2.673,-0.09
2.6735,-0.0795
2.674,-0.072
2.6745,-0.0645
2.675,-0.054
2.6755,-0.0465
2.676,-0.0375
2.6765,-0.03
2.677,-0.021
2.6775,-0.0135
2.678,-0.0045
2.6785,0.0045
2.679,0.012
2.6795,0.0195
2.68,0.03
2.6805,0.0375
2.681,0.045
2.6815,0.054
2.682,0.0615
2.6825,0.0705
2.683,0.078
2.6835,0.0885
2.684,0.096
2.6845,0.1035
2.685,0.111
2.6855,0.12
2.686,0.1275
2.6865,0.1365
2.687,0.144
2.6875,0.1515
2.688,0.159
2.6885,0.1665
2.689,0.1725
2.6895,0.1785
2.69,0.1845
2.6905,0.1905
2.691,0.1965
2.6915,0.1995
2.692,0.204
2.6925,0.207
2.693,0.2115
2.6935,0.213
2.694,0.2145
2.6945,0.216
2.695,0.216
2.6955,0.2145
2.696,0.2115
2.6965,0.21
2.697,0.2055
2.6975,0.201
2.698,0.1935
2.6985,0.1875
2.699,0.1785
2.6995,0.1695
2.7,0.1605
2.7005,0.1485
2.701,0.1365
2.7015,0.126
2.702,0.111
2.7025,0.0975
2.703,0.0825
2.7035,0.0675
2.704,0.0525
2.7045,0.036
2.705,0.0195
2.7055,0.003
2.706,-0.012
2.7065,-0.027
2.707,-0.045
2.7075,-0.06
2.708,-0.075
2.7085,-0.0885
2.709,-0.102
2.7095,-0.117
2.71,-0.129
2.7105,-0.141
2.711,-0.15
2.7115,-0.1605
2.712,-0.1695
2.7125,-0.177
2.713,-0.1845
2.7135,-0.1905
2.714,-0.195
2.7145,-0.1995
2.715,-0.2025
2.7155,-0.2055
2.716,-0.2055
2.7165,-0.207
2.717,-0.2055
2.7175,-0.204
2.718,-0.2025
2.7185,-0.1995
2.719,-0.1965
2.7195,-0.192
2.72,-0.1875
2.7205,-0.183
2.721,-0.1755
2.7215,-0.171
2.722,-0.1635
2.7225,-0.1575
2.723,-0.15
2.7235,-0.144
2.724,-0.1365
2.7245,-0.1275
2.725,-0.1215
2.7255,-0.1125
2.726,-0.105
2.7265,-0.0975
2.727,-0.0885
2.7275,-0.0795
2.728,-0.0735
2.7285,-0.0645
2.729,-0.057
2.7295,-0.048
2.73,-0.039
2.7305,-0.0315
2.731,-0.0225
2.7315,-0.015
2.732,-0.0075
2.7325,0
2.733,0.009
2.7335,0.0165
2.734,0.0255
2.7345,0.033
2.735,0.042
2.7355,0.0495
2.736,0.057
2.7365,0.066
2.737,0.0735
2.7375,0.0825
2.738,0.09
2.7385,0.0975
2.739,0.105
2.7395,0.1125
2.74,0.12
2.7405,0.129
2.741,0.1365
2.7415,0.1425
2.742,0.1485
2.7425,0.156
2.743,0.162
2.7435,0.168
2.744,0.1755
2.7445,0.18
2.745,0.186
2.7455,0.1905
2.746,0.1935
2.7465,0.1965
2.747,0.198
2.7475,0.2025
2.748,0.204
2.7485,0.204
2.749,0.204
2.7495,0.204
2.75,0.201
2.7505,0.198
2.751,0.195
2.7515,0.192
2.752,0.1845
2.7525,0.18
2.753,0.1725
2.7535,0.1635
2.754,0.1545
2.7545,0.144
2.755,0.135
2.7555,0.123
2.756,0.1095
2.7565,0.096
2.757,0.0825
2.7575,0.069
2.758,0.054
2.7585,0.0405
2.759,0.0255
2.7595,0.009
2.76,-0.0045
2.7605,-0.0195
2.761,-0.0345
2.7615,-0.051
2.762,-0.0645
2.7625,-0.078
2.763,-0.0915
2.7635,-0.105
2.764,-0.117
2.7645,-0.1275
2.765,-0.1395
2.7655,-0.147
2.766,-0.1575
2.7665,-0.165
2.767,-0.1725
2.7675,-0.177
2.768,-0.183
2.7685,-0.1875
2.769,-0.1905
2.7695,-0.1935
2.77,-0.195
2.7705,-0.1965
2.771,-0.1965
2.7715,-0.195
2.772,-0.1935
2.7725,-0.1905
2.773,-0.1875
2.7735,-0.1845
2.774,-0.18
2.7745,-0.177
2.775,-0.171
2.7755,-0.1635
2.776,-0.1605
2.7765,-0.153
2.777,-0.147
2.7775,-0.141
2.778,-0.1335
2.7785,-0.126
2.779,-0.117
2.7795,-0.1095
2.78,-0.1035
2.7805,-0.096
2.781,-0.0885
2.7815,-0.0795
2.782,-0.072
2.7825,-0.0645
2.783,-0.0555
2.7835,-0.048
2.784,-0.0405
2.7845,-0.033
2.785,-0.0255
2.7855,-0.0165
2.786,-0.0105
2.7865,-0.0015
2.787,0.006
2.7875,0.0135
2.788,0.0225
2.7885,0.0285
2.789,0.0375
2.7895,0.045
2.79,0.051
2.7905,0.06
2.791,0.069
2.7915,0.075
2.792,0.0825
2.7925,0.0915
2.793,0.0975
2.7935,0.1035
2.794,0.111
2.7945,0.1185
2.795,0.1275
2.7955,0.132
2.796,0.1395
2.7965,0.1455
2.797,0.15
2.7975,0.156
2.798,0.162
2.7985,0.168
2.799,0.1725
2.7995,0.177
2.8,0.18
2.8005,0.1845
2.801,0.186
2.8015,0.189
2.802,0.1905
2.8025,0.1905
2.803,0.1905
2.8035,0.1905
2.804,0.189
2.8045,0.186
2.805,0.183
2.8055,0.1785
2.806,0.174
2.8065,0.1695
2.807,0.162
2.8075,0.1545
2.808,0.147
2.8085,0.138
2.809,0.1275
2.8095,0.117
2.81,0.1065
2.8105,0.0945
2.811,0.081
2.8115,0.069
2.812,0.0555
2.8125,0.042
2.813,0.0285
2.8135,0.015
2.814,0.0015
2.8145,-0.0135
2.815,-0.027
2.8155,-0.0405
2.816,-0.0525
2.8165,-0.066
2.817,-0.078
2.8175,-0.0915
2.818,-0.102
2.8185,-0.1125
2.819,-0.123
2.8195,-0.132
2.82,-0.141
2.8205,-0.1485
2.821,-0.1545
2.8215,-0.1605
2.822,-0.1665
2.8225,-0.1695
2.823,-0.1725
2.8235,-0.177
2.824,-0.1785
2.8245,-0.1785
2.825,-0.1785
2.8255,-0.1785
2.826,-0.177
2.8265,-0.1755
2.827,-0.1725
2.8275,-0.1695
2.828,-0.1665
2.8285,-0.1635
2.829,-0.159
2.8295,-0.153
2.83,-0.1485
2.8305,-0.1425
2.831,-0.138
2.8315,-0.132
2.832,-0.1245
2.8325,-0.12
2.833,-0.1125
2.8335,-0.1065
2.834,-0.099
2.8345,-0.0915
2.835,-0.084
2.8355,-0.078
2.836,-0.0705
2.8365,-0.063
2.837,-0.0555
2.8375,-0.048
2.838,-0.0405
2.8385,-0.0345
2.839,-0.027
2.8395,-0.018
2.84,-0.0105
2.8405,-0.0045
2.841,0.003
2.8415,0.009
2.842,0.0165
2.8425,0.024
2.843,0.0315
2.8435,0.039
2.844,0.0465
2.8445,0.0525
2.845,0.06
2.8455,0.066
2.846,0.0735
2.8465,0.081
2.847,0.0885
2.8475,0.0945
2.848,0.099
2.8485,0.1065
2.849,0.1125
2.8495,0.12
2.85,0.126
2.8505,0.1305
2.851,0.135
2.8515,0.141
2.852,0.147
2.8525,0.15
2.853,0.153
2.8535,0.1575
2.854,0.1605
2.8545,0.1635
2.855,0.165
2.8555,0.1665
2.856,0.168
2.8565,0.1695
2.857,0.1695
2.8575,0.168
2.858,0.1665
2.8585,0.165
2.859,0.1605
2.8595,0.1575
2.86,0.1545
2.8605,0.1485
2.861,0.144
2.8615,0.1365
2.862,0.129
2.8625,0.12
2.863,0.1125
2.8635,0.1035
2.864,0.093
2.8645,0.084
2.865,0.0735
2.8655,0.063
2.866,0.051
2.8665,0.0405
2.867,0.0285
2.8675,0.0165
2.868,0.0045
2.8685,-0.006
2.869,-0.018
2.8695,-0.03
2.87,-0.0405
2.8705,-0.051
2.871,-0.063
2.8715,-0.0735
2.872,-0.0825
2.8725,-0.0915
2.873,-0.1005
2.8735,-0.1095
2.874,-0.1155
2.8745,-0.123
2.875,-0.129
2.8755,-0.135
2.876,-0.1395
2.8765,-0.144
2.877,-0.1485
2.8775,-0.15
2.878,-0.153
2.8785,-0.153
2.879,-0.1545
2.8795,-0.1545
2.88,-0.1545
2.8805,-0.1545
2.881,-0.1515
2.8815,-0.15
2.882,-0.147
2.8825,-0.144
2.883,-0.141
2.8835,-0.138
2.884,-0.135
2.8845,-0.1305
2.885,-0.1245
2.8855,-0.1185
2.886,-0.114
2.8865,-0.1095
2.887,-0.1035
2.8875,-0.0975
2.888,-0.0915
2.8885,-0.0855
2.889,-0.0795
2.8895,-0.072
2.89,-0.066
2.8905,-0.0585
2.891,-0.0525
2.8915,-0.0465
2.892,-0.039
2.8925,-0.033
2.893,-0.0255
2.8935,-0.0195
2.894,-0.012
2.8945,-0.0045
2.895,0.0015
2.8955,0.006
2.896,0.0135
2.8965,0.0195
2.897,0.027
2.8975,0.033
2.898,0.0405
2.8985,0.0465
2.899,0.0525
2.8995,0.057
2.9,0.0645
2.9005,0.0705
2.901,0.0765
2.9015,0.081
2.902,0.0885
2.9025,0.093
2.903,0.099
2.9035,0.1035
2.904,0.111
2.9045,0.114
2.905,0.1185
2.9055,0.123
2.906,0.1275
2.9065,0.132
2.907,0.135
2.9075,0.138
2.908,0.1395
2.9085,0.1425
2.909,0.144
2.9095,0.147
2.91,0.147
2.9105,0.147
2.911,0.1485
2.9115,0.147
2.912,0.1455
2.9125,0.144
2.913,0.141
2.9135,0.138
2.914,0.135
2.9145,0.1305
2.915,0.126
2.9155,0.12
2.916,0.114
2.9165,0.108
2.917,0.1005
2.9175,0.093
2.918,0.0855
2.9185,0.0765
2.919,0.069
2.9195,0.0585
2.92,0.0495
2.9205,0.0405
2.921,0.03
2.9215,0.021
2.922,0.009
2.9225,0
2.923,-0.0105
2.9235,-0.021
2.924,-0.03
2.9245,-0.039
2.925,-0.048
2.9255,-0.057
2.926,-0.066
2.9265,-0.0735
2.927,-0.081
2.9275,-0.0885
2.928,-0.096
2.9285,-0.102
2.929,-0.108
2.9295,-0.114
2.93,-0.1185
2.9305,-0.123
2.931,-0.1275
2.9315,-0.1275
2.932,-0.132
2.9325,-0.1335
2.933,-0.135
2.9335,-0.135
2.934,-0.135
2.9345,-0.135
2.935,-0.135
2.9355,-0.132
2.936,-0.132
2.9365,-0.129
2.937,-0.126
2.9375,-0.1245
2.938,-0.12
2.9385,-0.117
2.939,-0.1125
2.9395,-0.108
2.94,-0.102
2.9405,-0.099
2.941,-0.0945
2.9415,-0.0885
2.942,-0.084
2.9425,-0.078
2.943,-0.0735
2.9435,-0.069
2.944,-0.0615
2.9445,-0.057
2.945,-0.051
2.9455,-0.045
2.946,-0.039
2.9465,-0.033
2.947,-0.027
2.9475,-0.021
2.948,-0.0135
2.9485,-0.0075
2.949,-0.0015
2.9495,0.003
2.95,0.0105
2.9505,0.0165
2.951,0.021
2.9515,0.0285
2.952,0.033
2.9525,0.039
2.953,0.045
2.9535,0.051
2.954,0.0555
2.9545,0.06
2.955,0.066
2.9555,0.072
2.956,0.0765
2.9565,0.0825
2.957,0.087
2.9575,0.0915
2.958,0.096
2.9585,0.1005
2.959,0.105
2.9595,0.108
2.96,0.1125
2.9605,0.1155
2.961,0.12
2.9615,0.12
2.962,0.123
2.9625,0.126
2.963,0.1275
2.9635,0.1275
2.964,0.129
2.9645,0.1305
2.965,0.1305
2.9655,0.129
2.966,0.129
2.9665,0.1275
2.967,0.126
2.9675,0.1215
2.968,0.12
2.9685,0.1155
2.969,0.1125
2.9695,0.108
2.97,0.102
2.9705,0.0975
2.971,0.0915
2.9715,0.084
2.972,0.078
2.9725,0.0705
2.973,0.063
2.9735,0.054
2.974,0.0465
2.9745,0.039
2.975,0.0285
2.9755,0.021
2.976,0.012
2.9765,0.003
2.977,-0.0045
2.9775,-0.012
2.978,-0.0225
2.9785,-0.03
2.979,-0.0375
2.9795,-0.0465
2.98,-0.054
2.9805,-0.06
2.981,-0.0675
2.9815,-0.0735
2.982,-0.081
2.9825,-0.087
2.983,-0.0915
2.9835,-0.096
2.984,-0.1005
2.9845,-0.105
2.985,-0.108
2.9855,-0.111
2.986,-0.114
2.9865,-0.1155
2.987,-0.117
2.9875,-0.117
2.988,-0.117
2.9885,-0.1185
2.989,-0.117
2.9895,-0.117
2.99,-0.1155
2.9905,-0.114
2.991,-0.111
2.9915,-0.1095
2.992,-0.1065
2.9925,-0.1035
2.993,-0.1005
2.9935,-0.096
2.994,-0.0945
2.9945,-0.09
2.995,-0.0855
2.9955,-0.0825
2.996,-0.0765
2.9965,-0.072
2.997,-0.0675
2.9975,-0.063
2.998,-0.057
2.9985,-0.0525
2.999,-0.0465
2.9995,-0.042
3,-0.036
3.0005,-0.0315
3.001,-0.0255
3.0015,-0.0195
3.002,-0.0135
3.0025,-0.009
3.003,-0.003
3.0035,0.0015
3.004,0.006
3.0045,0.012
3.005,0.0165
3.0055,0.0225
3.006,0.0285
3.0065,0.033
3.007,0.0375
3.0075,0.0435
3.008,0.048
3.0085,0.0525
3.009,0.0585
3.0095,0.063
3.01,0.0675
3.0105,0.072
3.011,0.0765
3.0115,0.081
3.012,0.084
3.0125,0.0885
3.013,0.093
3.0135,0.096
3.014,0.0975
3.0145,0.1005
3.015,0.1035
3.0155,0.1065
3.016,0.108
3.0165,0.111
3.017,0.1125
3.0175,0.1125
3.018,0.1125
3.0185,0.1125
3.019,0.114
3.0195,0.1125
3.02,0.111
3.0205,0.111
3.021,0.108
3.0215,0.1065
3.022,0.1035
3.0225,0.1005
3.023,0.0975
3.0235,0.0945
3.024,0.09
3.0245,0.084
3.025,0.0795
3.0255,0.075
3.026,0.0675
3.0265,0.0615
3.027,0.0555
3.0275,0.0495
3.028,0.042
3.0285,0.0375
3.029,0.0285
3.0295,0.021
3.03,0.0135
3.0305,0.006
3.031,-0.0015
3.0315,-0.0075
3.032,-0.0165
3.0325,-0.021
3.033,-0.0285
3.0335,-0.036
3.034,-0.0435
3.0345,-0.0495
3.035,-0.054
3.0355,-0.06
3.036,-0.066
3.0365,-0.069
3.037,-0.075
3.0375,-0.0795
3.038,-0.084
3.0385,-0.0885
3.039,-0.09
3.0395,-0.093
3.04,-0.096
3.0405,-0.0975
3.041,-0.099
3.0415,-0.1005
3.042,-0.102
3.0425,-0.1005
3.043,-0.102
3.0435,-0.1005
3.044,-0.1005
3.0445,-0.099
3.045,-0.0975
3.0455,-0.096
3.046,-0.0945
3.0465,-0.093
3.047,-0.0885
3.0475,-0.087
3.048,-0.084
3.0485,-0.0795
3.049,-0.0765
3.0495,-0.0735
3.05,-0.0705
3.0505,-0.066
3.051,-0.063
3.0515,-0.057
3.052,-0.0525
3.0525,-0.0495
3.053,-0.0435
3.0535,-0.039
3.054,-0.033
3.0545,-0.03
3.055,-0.0255
3.0555,-0.0195
3.056,-0.015
3.0565,-0.009
3.057,-0.0045
3.0575,-0.0015
3.058,0.003
3.0585,0.009
3.059,0.0135
3.0595,0.0195
3.06,0.024
3.0605,0.0285
3.061,0.033
3.0615,0.036
3.062,0.0405
3.0625,0.045
3.063,0.0495
3.0635,0.0525
3.064,0.0585
3.0645,0.0615
3.065,0.0675
3.0655,0.0705
3.066,0.072
3.0665,0.0765
3.067,0.081
3.0675,0.084
3.068,0.087
3.0685,0.0885
3.069,0.0915
3.0695,0.093
3.07,0.0945
3.0705,0.0945
3.071,0.0975
3.0715,0.0975
3.072,0.099
3.0725,0.099
3.073,0.0975
3.0735,0.099
3.074,0.0975
3.0745,0.0975
3.075,0.096
3.0755,0.0945
3.076,0.0915
3.0765,0.09
3.077,0.0855
3.0775,0.0825
3.078,0.0795
3.0785,0.075
3.079,0.072
3.0795,0.066
3.08,0.0615
3.0805,0.057
3.081,0.051
3.0815,0.045
3.082,0.0405
3.0825,0.0345
3.083,0.027
3.0835,0.021
3.084,0.015
3.0845,0.009
3.085,0.0015
3.0855,-0.003
3.086,-0.009
3.0865,-0.0165
3.087,-0.021
3.0875,-0.027
3.088,-0.033
3.0885,-0.039
3.089,-0.0435
3.0895,-0.048
3.09,-0.0525
3.0905,-0.057
3.091,-0.0615
3.0915,-0.066
3.092,-0.069
3.0925,-0.0735
3.093,-0.0765
3.0935,-0.0795
3.094,-0.081
3.0945,-0.0825
3.095,-0.084
3.0955,-0.0855
3.096,-0.087
3.0965,-0.087
3.097,-0.087
3.0975,-0.087
3.098,-0.0885
3.0985,-0.087
3.099,-0.0855
3.0995,-0.084
3.1,-0.0825
3.1005,-0.0795
3.101,-0.078
3.1015,-0.075
3.102,-0.0735
3.1025,-0.072
3.103,-0.0675
3.1035,-0.0645
3.104,-0.0615
3.1045,-0.0585
3.105,-0.054
3.1055,-0.051
3.106,-0.0465
3.1065,-0.0435
3.107,-0.0405
3.1075,-0.036
3.108,-0.0315
3.1085,-0.027
3.109,-0.0225
3.1095,-0.0195
3.11,-0.015
3.1105,-0.0105
3.111,-0.0045
3.1115,-0.0015
3.112,0.0015
3.1125,0.006
3.113,0.012
3.1135,0.015
3.114,0.018
3.1145,0.0225
3.115,0.027
3.1155,0.0315
3.116,0.036
3.1165,0.039
3.117,0.0435
3.1175,0.0465
3.118,0.0495
3.1185,0.0525
3.119,0.057
3.1195,0.06
3.12,0.0615
3.1205,0.066
3.121,0.0675
3.1215,0.0705
3.122,0.0735
3.1225,0.075
3.123,0.078
3.1235,0.0795
3.124,0.081
3.1245,0.0825
3.125,0.0825
3.1255,0.084
3.126,0.0855
3.1265,0.0855
3.127,0.0855
3.1275,0.0855
3.128,0.0855
3.1285,0.084
3.129,0.0825
3.1295,0.081
3.13,0.0795
3.1305,0.0765
3.131,0.075
3.1315,0.072
3.132,0.069
3.1325,0.066
3.133,0.0615
3.1335,0.0585
3.134,0.054
3.1345,0.0495
3.135,0.045
3.1355,0.0405
3.136,0.036
3.1365,0.03
3.137,0.0255
3.1375,0.0195
3.138,0.015
3.1385,0.0105
3.139,0.003
3.1395,0
3.14,-0.006
3.1405,-0.0105
3.141,-0.015
3.1415,-0.0195
3.142,-0.0255
3.1425,-0.03
3.143,-0.0345
3.1435,-0.0375
3.144,-0.042
3.1445,-0.048
3.145,-0.0495
3.1455,-0.054
3.146,-0.057
3.1465,-0.0585
3.147,-0.0615
3.1475,-0.0645
3.148,-0.066
3.1485,-0.0675
3.149,-0.0705
3.1495,-0.072
3.15,-0.0735
3.1505,-0.072
3.151,-0.0735
3.1515,-0.075
3.152,-0.072
3.1525,-0.0735
3.153,-0.0735
3.1535,-0.072
3.154,-0.0705
3.1545,-0.069
3.155,-0.0675
3.1555,-0.066
3.156,-0.0645
3.1565,-0.063
3.157,-0.06
3.1575,-0.057
3.158,-0.054
3.1585,-0.051
3.159,-0.0495
3.1595,-0.0465
3.16,-0.042
3.1605,-0.039
3.161,-0.036
3.1615,-0.033
3.162,-0.03
3.1625,-0.0255
3.163,-0.021
3.1635,-0.0165
3.164,-0.015
3.1645,-0.0105
3.165,-0.0075
3.1655,-0.003
3.166,0
3.1665,0.0045
3.167,0.0075
3.1675,0.0105
3.168,0.015
3.1685,0.018
3.169,0.021
3.1695,0.027
3.17,0.0285
3.1705,0.033
3.171,0.036
3.1715,0.039
3.172,0.042
3.1725,0.045
3.173,0.048
3.1735,0.051
3.174,0.054
3.1745,0.057
3.175,0.0585
3.1755,0.0615
3.176,0.063
3.1765,0.0645
3.177,0.0675
3.1775,0.069
3.178,0.0705
3.1785,0.0705
3.179,0.072
3.1795,0.0735
3.18,0.0735
3.1805,0.0735
3.181,0.0735
3.1815,0.072
3.182,0.0735
3.1825,0.072
3.183,0.0705
3.1835,0.069
3.184,0.0675
3.1845,0.066
3.185,0.0645
3.1855,0.0615
3.186,0.0585
3.1865,0.057
3.187,0.054
3.1875,0.0495
3.188,0.048
3.1885,0.0435
3.189,0.039
3.1895,0.036
3.19,0.0315
3.1905,0.0285
3.191,0.024
3.1915,0.0195
3.192,0.0165
3.1925,0.012
3.193,0.006
3.1935,0.003
3.194,-0.0015
3.1945,-0.006
3.195,-0.009
3.1955,-0.0135
3.196,-0.018
3.1965,-0.024
3.197,-0.0255
3.1975,-0.03
3.198,-0.033
3.1985,-0.0375
3.199,-0.0405
3.1995,-0.0435
3.2,-0.045
3.2005,-0.048
3.201,-0.051
3.2015,-0.0525
3.202,-0.0555
3.2025,-0.057
3.203,-0.0585
3.2035,-0.06
3.204,-0.0615
3.2045,-0.0615
3.205,-0.0615
3.2055,-0.063
3.206,-0.063
3.2065,-0.0615
3.207,-0.0615
3.2075,-0.063
3.208,-0.0615
3.2085,-0.06
3.209,-0.0585
3.2095,-0.057
3.21,-0.054
3.2105,-0.054
3.211,-0.0525
3.2115,-0.0495
3.212,-0.048
3.2125,-0.045
3.213,-0.042
3.2135,-0.039
3.214,-0.039
3.2145,-0.0345
3.215,-0.033
3.2155,-0.0285
3.216,-0.0255
3.2165,-0.024
3.217,-0.0195
3.2175,-0.0165
3.218,-0.0135
3.2185,-0.0105
3.219,-0.006
3.2195,-0.003
3.22,0
3.2205,0.003
3.221,0.006
3.2215,0.009
3.222,0.012
3.2225,0.015
3.223,0.0195
3.2235,0.021
3.224,0.024
3.2245,0.027
3.225,0.03
3.2255,0.033
3.226,0.036
3.2265,0.039
3.227,0.0405
3.2275,0.0435
3.228,0.045
3.2285,0.048
3.229,0.0495
3.2295,0.051
3.23,0.054
3.2305,0.0555
3.231,0.057
3.2315,0.057
3.232,0.06
3.2325,0.06
3.233,0.06
3.2335,0.0615
3.234,0.063
3.2345,0.063
3.235,0.063
3.2355,0.0615
3.236,0.0615
3.2365,0.0615
3.237,0.06
3.2375,0.06
3.238,0.0585
3.2385,0.057
3.239,0.0555
3.2395,0.054
3.24,0.051
3.2405,0.048
3.241,0.0465
3.2415,0.045
3.242,0.042
3.2425,0.039
3.243,0.036
3.2435,0.0315
3.244,0.0285
3.2445,0.0255
3.245,0.0225
3.2455,0.018
3.246,0.015
3.2465,0.0105
3.247,0.0075
3.2475,0.0045
3.248,0
3.2485,-0.003
3.249,-0.006
3.2495,-0.0105
3.25,-0.0135
3.2505,-0.0165
3.251,-0.0195
3.2515,-0.0225
3.252,-0.027
3.2525,-0.03
3.253,-0.0315
3.2535,-0.033
3.254,-0.036
3.2545,-0.039
3.255,-0.0405
3.2555,-0.0435
3.256,-0.045
3.2565,-0.0465
3.257,-0.048
3.2575,-0.0495
3.258,-0.0495
3.2585,-0.051
3.259,-0.051
3.2595,-0.051
3.26,-0.0525
3.2605,-0.0525
3.261,-0.0525
3.2615,-0.051
3.262,-0.051
3.2625,-0.0495
3.263,-0.0495
3.2635,-0.048
3.264,-0.0465
3.2645,-0.045
3.265,-0.045
3.2655,-0.0435
3.266,-0.0405
3.2665,-0.039
3.267,-0.0375
3.2675,-0.0345
3.268,-0.033
3.2685,-0.03
3.269,-0.0285
3.2695,-0.027
3.27,-0.024
3.2705,-0.0195
3.271,-0.018
3.2715,-0.015
3.272,-0.012
3.2725,-0.0105
3.273,-0.006
3.2735,-0.0045
3.274,-0.0015
3.2745,0.0015
3.275,0.0045
3.2755,0.0075
3.276,0.009
3.2765,0.0105
3.277,0.015
3.2775,0.018
3.278,0.0195
3.2785,0.0225
3.279,0.0255
3.2795,0.027
3.28,0.0285
3.2805,0.033
3.281,0.036
3.2815,0.036
3.282,0.039
3.2825,0.0405
3.283,0.0435
3.2835,0.0435
3.284,0.0465
3.2845,0.0465
3.285,0.048
3.2855,0.0495
3.286,0.0495
3.2865,0.051
3.287,0.0525
3.2875,0.0525
3.288,0.0525
3.2885,0.054
3.289,0.054
3.2895,0.054
3.29,0.0525
3.2905,0.0525
3.291,0.0525
3.2915,0.051
3.292,0.051
3.2925,0.0495
3.293,0.048
3.2935,0.048
3.294,0.045
3.2945,0.042
3.295,0.0405
3.2955,0.039
3.296,0.0375
3.2965,0.0345
3.297,0.0315
3.2975,0.0285
3.298,0.0255
3.2985,0.024
3.299,0.0195
3.2995,0.018
3.3,0.0135
3.3005,0.0105
3.301,0.0075
3.3015,0.0045
3.302,0.0015
3.3025,-0.0015
3.303,-0.0045
3.3035,-0.006
3.304,-0.009
3.3045,-0.0135
3.305,-0.015
3.3055,-0.018
3.306,-0.021
3.3065,-0.0225
3.307,-0.0255
3.3075,-0.027
3.308,-0.03
3.3085,-0.0315
3.309,-0.033
3.3095,-0.0345
3.31,-0.0375
3.3105,-0.0375
3.311,-0.039
3.3115,-0.039
3.312,-0.0405
3.3125,-0.042
3.313,-0.042
3.3135,-0.0435
3.314,-0.0435
3.3145,-0.0435
3.315,-0.0435
3.3155,-0.0435
3.316,-0.042
3.3165,-0.042
3.317,-0.0435
3.3175,-0.0405
3.318,-0.039
3.3185,-0.039
3.319,-0.039
3.3195,-0.0375
3.32,-0.0345
3.3205,-0.033
3.321,-0.0315
3.3215,-0.03
3.322,-0.0285
3.3225,-0.0255
3.323,-0.0255
3.3235,-0.0225
3.324,-0.021
3.3245,-0.018
3.325,-0.015
3.3255,-0.0135
3.326,-0.0105
3.3265,-0.0075
3.327,-0.006
3.3275,-0.003
3.328,-0.0015
3.3285,0.0015
3.329,0.003
3.3295,0.0045
3.33,0.0075
3.3305,0.0105
3.331,0.012
3.3315,0.0135
3.332,0.0165
3.3325,0.018
3.333,0.021
3.3335,0.024
3.334,0.0255
3.3345,0.027
3.335,0.03
3.3355,0.03
3.336,0.033
3.3365,0.033
3.337,0.036
3.3375,0.0375
3.338,0.0375
3.3385,0.039
3.339,0.042
3.3395,0.042
3.34,0.0435
3.3405,0.0435
3.341,0.045
3.3415,0.0435
3.342,0.045
3.3425,0.045
3.343,0.045
3.3435,0.045
3.344,0.045
3.3445,0.0435
3.345,0.045
3.3455,0.0435
3.346,0.042
3.3465,0.042
3.347,0.0405
3.3475,0.039
3.348,0.0375
3.3485,0.036
3.349,0.0345
3.3495,0.033
3.35,0.0315
3.3505,0.0285
3.351,0.027
3.3515,0.0255
3.352,0.0225
3.3525,0.0195
3.353,0.0165
3.3535,0.0165
3.354,0.0135
3.3545,0.0105
3.355,0.009
3.3555,0.006
3.356,0.003
3.3565,0
3.357,0
3.3575,-0.003
3.358,-0.006
3.3585,-0.0075
3.359,-0.012
3.3595,-0.012
3.36,-0.0135
3.3605,-0.0165
3.361,-0.018
3.3615,-0.021
3.362,-0.0225
3.3625,-0.024
3.363,-0.0255
3.3635,-0.027
3.364,-0.0285
3.3645,-0.03
3.365,-0.0315
3.3655,-0.033
3.366,-0.033
3.3665,-0.033
3.367,-0.0345
3.3675,-0.0345
3.368,-0.0345
3.3685,-0.036
3.369,-0.036
3.3695,-0.036
3.37,-0.0345
3.3705,-0.036
3.371,-0.036
3.3715,-0.0345
3.372,-0.033
3.3725,-0.0315
3.373,-0.03
3.3735,-0.03
3.374,-0.03
3.3745,-0.0285
3.375,-0.027
3.3755,-0.0255
3.376,-0.0255
3.3765,-0.0225
3.377,-0.021
3.3775,-0.0195
3.378,-0.018
3.3785,-0.0165
3.379,-0.0135
3.3795,-0.012
3.38,-0.0105
3.3805,-0.0075
3.381,-0.0045
3.3815,-0.0045
3.382,-0.0015
3.3825,0
3.383,0.003
3.3835,0.003
3.384,0.0045
3.3845,0.0075
3.385,0.0105
3.3855,0.012
3.386,0.015
3.3865,0.015
3.387,0.018
3.3875,0.018
3.388,0.021
3.3885,0.0225
3.389,0.024
3.3895,0.0255
3.39,0.0255
3.3905,0.027
3.391,0.03
3.3915,0.03
3.392,0.0315
3.3925,0.033
3.393,0.0345
3.3935,0.0345
3.394,0.036
3.3945,0.036
3.395,0.036
3.3955,0.0375
3.396,0.036
3.3965,0.0375
3.397,0.0375
3.3975,0.0375
3.398,0.0375
3.3985,0.0375
3.399,0.0375
3.3995,0.036
3.4,0.036
3.4005,0.0345
3.401,0.0345
3.4015,0.033
3.402,0.0315
3.4025,0.03
3.403,0.0285
3.4035,0.027
3.404,0.027
3.4045,0.0255
3.405,0.024
3.4055,0.0225
3.406,0.021
3.4065,0.018
3.407,0.015
3.4075,0.015
3.408,0.012
3.4085,0.0105
3.409,0.0075
3.4095,0.006
3.41,0.0045
3.4105,0.003
3.411,0.0015
3.4115,0
3.412,-0.003
3.4125,-0.0045
3.413,-0.006
3.4135,-0.009
3.414,-0.009
3.4145,-0.012
3.415,-0.015
3.4155,-0.015
3.416,-0.0165
3.4165,-0.0195
3.417,-0.0195
3.4175,-0.021
3.418,-0.0225
3.4185,-0.024
3.419,-0.024
3.4195,-0.0255
3.42,-0.0255
3.4205,-0.0255
3.421,-0.027
3.4215,-0.0285
3.422,-0.0285
3.4225,-0.0285
3.423,-0.0285
3.4235,-0.0285
3.424,-0.0285
3.4245,-0.0285
3.425,-0.027
3.4255,-0.027
3.426,-0.027
3.4265,-0.0255
3.427,-0.0255
3.4275,-0.0255
3.428,-0.024
3.4285,-0.0225
3.429,-0.021
3.4295,-0.021
3.43,-0.018
3.4305,-0.018
3.431,-0.0165
3.4315,-0.015
3.432,-0.015
3.4325,-0.012
3.433,-0.0105
3.4335,-0.0105
3.434,-0.0075
3.4345,-0.0075
3.435,-0.0045
3.4355,-0.003
3.436,-0.0015
3.4365,0
3.437,0.0015
3.4375,0.003
3.438,0.0045
3.4385,0.006
3.439,0.0075
3.4395,0.009
3.44,0.0105
3.4405,0.012
3.441,0.012
3.4415,0.015
3.442,0.015
3.4425,0.018
3.443,0.0195
3.4435,0.021
3.444,0.021
3.4445,0.021
3.445,0.024
3.4455,0.024
3.446,0.0255
3.4465,0.027
3.447,0.027
3.4475,0.0285
3.448,0.0285
3.4485,0.0285
3.449,0.03
3.4495,0.03
3.45,0.0315
3.4505,0.0315
3.451,0.0315
3.4515,0.03
3.452,0.03
3.4525,0.0315
3.453,0.0315
3.4535,0.0315
3.454,0.03
3.4545,0.03
3.455,0.0285
3.4555,0.027
3.456,0.027
3.4565,0.0255
3.457,0.0255
3.4575,0.024
3.458,0.0225
3.4585,0.021
3.459,0.021
3.4595,0.0195
3.46,0.018
3.4605,0.015
3.461,0.015
3.4615,0.0135
3.462,0.0105
3.4625,0.009
3.463,0.0075
3.4635,0.006
3.464,0.0045
3.4645,0.0015
3.465,0.0015
3.4655,-0.0015
3.466,-0.0015
3.4665,-0.003
3.467,-0.0045
3.4675,-0.006
3.468,-0.0075
3.4685,-0.009
3.469,-0.009
3.4695,-0.0105
3.47,-0.012
3.4705,-0.012
3.471,-0.015
3.4715,-0.0165
3.472,-0.0165
3.4725,-0.0165
3.473,-0.018
3.4735,-0.018
3.474,-0.0195
3.4745,-0.0195
3.475,-0.0195
3.4755,-0.0195
3.476,-0.021
3.4765,-0.021
3.477,-0.0225
3.4775,-0.0225
3.478,-0.021
3.4785,-0.021
3.479,-0.0225
3.4795,-0.021
3.48,-0.021
3.4805,-0.0195
3.481,-0.0195
3.4815,-0.0195
3.482,-0.018
3.4825,-0.018
3.483,-0.018
3.4835,-0.018
3.484,-0.0165
3.4845,-0.015
3.485,-0.0135
3.4855,-0.012
3.486,-0.012
3.4865,-0.0105
3.487,-0.009
3.4875,-0.0075
3.488,-0.0075
3.4885,-0.006
3.489,-0.0045
3.4895,-0.003
3.49,-0.0015
3.4905,0
3.491,0
3.4915,0.0015
3.492,0.003
3.4925,0.0045
3.493,0.006
3.4935,0.006
3.494,0.0075
3.4945,0.009
3.495,0.0105
3.4955,0.012
3.496,0.0135
3.4965,0.0135
3.497,0.015
3.4975,0.015
3.498,0.018
3.4985,0.0195
3.499,0.0195
3.4995,0.0195
3.5,0.021
3.5005,0.0225
3.501,0.0225
3.5015,0.0225
3.502,0.0225
3.5025,0.0225
3.503,0.024
3.5035,0.0255
3.504,0.024
3.5045,0.024
3.505,0.024
3.5055,0.0255
3.506,0.0255
3.5065,0.0255
3.507,0.024
3.5075,0.024
3.508,0.024
3.5085,0.024
3.509,0.024
3.5095,0.0225
3.51,0.0225
3.5105,0.021
3.511,0.021
3.5115,0.0195
3.512,0.0195
3.5125,0.018
3.513,0.018
3.5135,0.0165
3.514,0.015
3.5145,0.015
3.515,0.0135
3.5155,0.012
3.516,0.0105
3.5165,0.009
3.517,0.0075
3.5175,0.0075
3.518,0.0045
3.5185,0.003
3.519,0.003
3.5195,0.0015
3.52,0.0015
3.5205,0
3.521,-0.003
3.5215,-0.003
3.522,-0.003
3.5225,-0.0045
3.523,-0.006
3.5235,-0.006
3.524,-0.009
3.5245,-0.009
3.525,-0.0105
3.5255,-0.012
3.526,-0.012
3.5265,-0.012
3.527,-0.0135
3.5275,-0.0135
3.528,-0.015
3.5285,-0.015
3.529,-0.015
3.5295,-0.015
3.53,-0.015
3.5305,-0.015
3.531,-0.0165
3.5315,-0.015
3.532,-0.0165
3.5325,-0.0165
3.533,-0.0165
3.5335,-0.018
3.534,-0.0165
3.5345,-0.0165
3.535,-0.015
3.5355,-0.015
3.536,-0.015
3.5365,-0.015
3.537,-0.0135
3.5375,-0.0135
3.538,-0.012
3.5385,-0.0105
3.539,-0.009
3.5395,-0.0105
3.54,-0.009
3.5405,-0.0075
3.541,-0.0075
3.5415,-0.006
3.542,-0.006
3.5425,-0.0045
3.543,-0.003
3.5435,-0.0015
3.544,-0.0015
3.5445,0
3.545,0.0015
3.5455,0.0015
3.546,0.003
3.5465,0.003
3.547,0.0045
3.5475,0.006
3.548,0.006
3.5485,0.0075
3.549,0.0075
3.5495,0.009
3.55,0.0105
3.5505,0.0105
3.551,0.012
3.5515,0.0135
3.552,0.015
3.5525,0.015
3.553,0.0165
3.5535,0.0165
3.554,0.0165
3.5545,0.0165
3.555,0.0165
3.5555,0.018
3.556,0.0165
3.5565,0.0195
3.557,0.018
3.5575,0.0195
3.558,0.018
3.5585,0.0195
3.559,0.0195
3.5595,0.0195
3.56,0.0195
3.5605,0.0195
3.561,0.0195
3.5615,0.0195
3.562,0.0195
3.5625,0.018
3.563,0.018
3.5635,0.018
3.564,0.018
3.5645,0.018
3.565,0.015
3.5655,0.015
3.566,0.0165
3.5665,0.0135
3.567,0.0135
3.5675,0.0135
3.568,0.012
3.5685,0.0105
3.569,0.0105
3.5695,0.009
3.57,0.009
3.5705,0.0075
3.571,0.006
3.5715,0.0045
3.572,0.0045
3.5725,0.003
3.573,0.003
3.5735,0.003
3.574,0.0015
3.5745,0
3.575,-0.0015
3.5755,-0.0015
3.576,0
3.5765,-0.0015
3.577,-0.003
3.5775,-0.0045
3.578,-0.0045
3.5785,-0.0045
3.579,-0.0075
3.5795,-0.0075
3.58,-0.0075
3.5805,-0.0075
3.581,-0.009
3.5815,-0.0105
3.582,-0.0105
3.5825,-0.0105
3.583,-0.012
3.5835,-0.0105
3.584,-0.0105
3.5845,-0.0105
3.585,-0.0105
3.5855,-0.0105
3.586,-0.0105
3.5865,-0.012
3.587,-0.012
3.5875,-0.012
3.588,-0.0105
3.5885,-0.0105
3.589,-0.0105
3.5895,-0.009
3.59,-0.009
3.5905,-0.009
3.591,-0.0075
3.5915,-0.009
3.592,-0.0075
3.5925,-0.006
3.593,-0.0075
3.5935,-0.006
3.594,-0.0045
3.5945,-0.0045
3.595,-0.0045
3.5955,-0.0045
3.596,-0.003
3.5965,-0.0015
3.597,-0.0015
3.5975,-0.0015
3.598,0
3.5985,0
3.599,0.0015
3.5995,0.0015
3.6,0.0015
3.6005,0.003
3.601,0.003
3.6015,0.003
3.602,0.006
3.6025,0.006
3.603,0.006
3.6035,0.006
3.604,0.0075
3.6045,0.009
3.605,0.009
3.6055,0.009
3.606,0.0105
3.6065,0.0105
3.607,0.0105
3.6075,0.012
3.608,0.012
3.6085,0.0135
3.609,0.012
3.6095,0.0135
3.61,0.0135
3.6105,0.015
3.611,0.0135
3.6115,0.0135
3.612,0.015
3.6125,0.015
3.613,0.0165
3.6135,0.015
3.614,0.0165
3.6145,0.0165
3.615,0.015
3.6155,0.015
3.616,0.0135
3.6165,0.0135
3.617,0.0135
3.6175,0.015
3.618,0.0135
3.6185,0.0135
3.619,0.0135
3.6195,0.012
3.62,0.012
3.6205,0.012
3.621,0.0105
3.6215,0.0105
3.622,0.009
3.6225,0.009
3.623,0.009
3.6235,0.009
3.624,0.0075
3.6245,0.006
3.625,0.006
3.6255,0.0045
3.626,0.0045
3.6265,0.003
3.627,0.003
3.6275,0.003
3.628,0.0015
3.6285,0.0015
3.629,0.0015
3.6295,0.0015
3.63,0
3.6305,0
3.631,0
3.6315,-0.0015
3.632,-0.0015
3.6325,-0.003
3.633,-0.003
3.6335,-0.0045
3.634,-0.003
3.6345,-0.003
3.635,-0.0045
3.6355,-0.006
3.636,-0.006
3.6365,-0.006
3.637,-0.006
3.6375,-0.006
3.638,-0.006
3.6385,-0.0075
3.639,-0.006
3.6395,-0.006
3.64,-0.006
3.6405,-0.006
3.641,-0.0075
3.6415,-0.0075
3.642,-0.0075
3.6425,-0.006
3.643,-0.006
3.6435,-0.006
3.644,-0.006
3.6445,-0.006
3.645,-0.006
3.6455,-0.006
3.646,-0.0045
3.6465,-0.0045
3.647,-0.0045
3.6475,-0.0045
3.648,-0.003
3.6485,-0.003
3.649,-0.003
3.6495,-0.0015
3.65,-0.0015
3.6505,0
3.651,0
3.6515,0
3.652,0
3.6525,0
3.653,0.0015
3.6535,0.0015
3.654,0.003
3.6545,0.0015
3.655,0.003
3.6555,0.003
3.656,0.0045
3.6565,0.0045
3.657,0.0045
3.6575,0.006
3.658,0.006
3.6585,0.006
3.659,0.0075
3.6595,0.0075
3.66,0.0075
3.6605,0.0075
3.661,0.009
3.6615,0.0075
3.662,0.009
3.6625,0.009
3.663,0.0105
3.6635,0.0105
3.664,0.0105
3.6645,0.0105
3.665,0.0105
3.6655,0.0105
3.666,0.012
3.6665,0.0105
3.667,0.0105
3.6675,0.012
3.668,0.012
3.6685,0.0105
3.669,0.0105
3.6695,0.0105
3.67,0.0105
3.6705,0.009
3.671,0.0105
3.6715,0.0105
3.672,0.0105
3.6725,0.0105
3.673,0.009
3.6735,0.009
3.674,0.009
3.6745,0.009
3.675,0.0075
3.6755,0.0075
3.676,0.0075
3.6765,0.0075
3.677,0.0075
3.6775,0.006
3.678,0.006
3.6785,0.006
3.679,0.006
3.6795,0.006
3.68,0.0045
3.6805,0.0045
3.681,0.003
3.6815,0.003
3.682,0.003
3.6825,0.003
3.683,0.0015
3.6835,0.0015
3.684,0.0015
3.6845,0.0015
3.685,0
3.6855,0
3.686,0
3.6865,0
3.687,-0.0015
3.6875,0
3.688,-0.0015
3.6885,-0.0015
3.689,-0.0015
3.6895,-0.0015
3.69,-0.0015
3.6905,-0.003
3.691,-0.003
3.6915,-0.0015
3.692,-0.003
3.6925,-0.003
3.693,-0.0015
3.6935,-0.003
3.694,-0.003
3.6945,-0.003
3.695,-0.003
3.6955,-0.003
3.696,-0.0045
3.6965,-0.003
3.697,-0.003
3.6975,-0.003
3.698,-0.003
3.6985,-0.003
3.699,-0.0015
3.6995,-0.0015
3.7,-0.003
3.7005,-0.0015
3.701,-0.0015
3.7015,-0.0015
3.702,0
3.7025,-0.0015
3.703,-0.0015
3.7035,0
3.704,-0.0015
3.7045,0
3.705,0
3.7055,0
3.706,0.0015
3.7065,0.0015
3.707,0.003
3.7075,0.0015
3.708,0.0015
3.7085,0.003
3.709,0.003
3.7095,0.003
3.71,0.0045
3.7105,0.0045
3.711,0.0045
3.7115,0.0045
3.712,0.0045
3.7125,0.006
3.713,0.006
3.7135,0.006
3.714,0.0045
3.7145,0.006
3.715,0.006
3.7155,0.006
3.716,0.006
3.7165,0.006
3.717,0.006
3.7175,0.0075
3.718,0.006
3.7185,0.0075
3.719,0.0075
3.7195,0.0075
3.72,0.0075
3.7205,0.0075
3.721,0.0075
3.7215,0.0075
3.722,0.0075
3.7225,0.0075
3.723,0.009
3.7235,0.0075
3.724,0.0075
3.7245,0.006
3.725,0.0075
3.7255,0.0075
3.726,0.0075
3.7265,0.006
3.727,0.0075
3.7275,0.0075
3.728,0.006
3.7285,0.006
3.729,0.0075
3.7295,0.0075
3.73,0.006
3.7305,0.006
3.731,0.006
3.7315,0.006
3.732,0.0045
3.7325,0.0045
3.733,0.0045
3.7335,0.0045
3.734,0.0045
3.7345,0.003
3.735,0.003
3.7355,0.0045
3.736,0.003
3.7365,0.003
3.737,0.003
3.7375,0.003
3.738,0.0015
3.7385,0.003
3.739,0.0015
3.7395,0.003
3.74,0.0015
3.7405,0.0015
3.741,0.0015
3.7415,0.0015
3.742,0
3.7425,0
3.743,0
3.7435,0.0015
3.744,0
3.7445,0
3.745,0
3.7455,0
3.746,0
3.7465,0.0015
3.747,0
3.7475,-0.0015
3.748,0
3.7485,0
3.749,0
3.7495,0
3.75,0
3.7505,0
3.751,0
3.7515,0
3.752,0
3.7525,0
3.753,0
3.7535,0
3.754,0
3.7545,0
3.755,0.0015
3.7555,0
3.756,0
3.7565,0.0015
3.757,0.0015
3.7575,0.0015
3.758,0.0015
3.7585,0.0015
3.759,0.0015
3.7595,0
3.76,0.0015
3.7605,0.0015
3.761,0.003
3.7615,0.003
3.762,0.0015
3.7625,0.003
3.763,0.003
3.7635,0.003
3.764,0.003
3.7645,0.003
3.765,0.003
3.7655,0.0045
3.766,0.003
3.7665,0.003
3.767,0.003
3.7675,0.003
3.768,0.0045
3.7685,0.0045
3.769,0.003
3.7695,0.0045
3.77,0.0045
3.7705,0.0045
3.771,0.0045
3.7715,0.0045
3.772,0.0045
3.7725,0.0045
3.773,0.006
3.7735,0.0045
3.774,0.0045
3.7745,0.0045
3.775,0.0045
3.7755,0.0045
3.776,0.0045
3.7765,0.0045
3.777,0.0045
3.7775,0.0045
3.778,0.0045
3.7785,0.0045
3.779,0.0045
3.7795,0.006
3.78,0.0045
3.7805,0.0045
3.781,0.0045
3.7815,0.0045
3.782,0.0045
3.7825,0.0045
3.783,0.0045
3.7835,0.0045
3.784,0.0045
3.7845,0.0045
3.785,0.003
3.7855,0.0045
3.786,0.0045
3.7865,0.003
3.787,0.0045
3.7875,0.003
3.788,0.003
3.7885,0.003
3.789,0.0045
3.7895,0.0045
3.79,0.003
3.7905,0.003
3.791,0.003
3.7915,0.003
3.792,0.003
3.7925,0.003
3.793,0.003
3.7935,0.003
3.794,0.003
3.7945,0.0015
3.795,0.003
3.7955,0.003
3.796,0.003
3.7965,0.003
3.797,0.0015
3.7975,0.003
3.798,0.0015
3.7985,0.0015
3.799,0.0015
3.7995,0.0015
3.8,0.0015
3.8005,0.0015
3.801,0.0015
3.8015,0.0015
3.802,0.0015
3.8025,0.0015
3.803,0.0015
3.8035,0.003
3.804,0.0015
3.8045,0.0015
3.805,0.0015
3.8055,0.003
3.806,0.003
3.8065,0.0015
3.807,0.0015
3.8075,0.0015
3.808,0.0015
3.8085,0.0015
3.809,0.0015
3.8095,0.0015
3.81,0.0015
3.8105,0.003
3.811,0.003
3.8115,0.0015
3.812,0.0015
3.8125,0.0015
3.813,0.0015
3.8135,0.0015
3.814,0.003
3.8145,0.003
3.815,0.003
3.8155,0.003
3.816,0.003
3.8165,0.003
3.817,0.003
3.8175,0.003
3.818,0.003
3.8185,0.003
3.819,0.003
3.8195,0.003
3.82,0.003
3.8205,0.0015
3.821,0.003
3.8215,0.003
3.822,0.0045
3.8225,0.003
3.823,0.003
3.8235,0.003
3.824,0.003
3.8245,0.003
3.825,0.003
3.8255,0.0015
3.826,0.003
3.8265,0.003
3.827,0.003
3.8275,0.0015
3.828,0.003
3.8285,0.003
3.829,0.003
3.8295,0.003
3.83,0.003
3.8305,0.003
3.831,0.003
3.8315,0.003
3.832,0.0045
3.8325,0.003
3.833,0.0015
3.8335,0.003
3.834,0.003
3.8345,0.003
3.835,0.003
3.8355,0.003
3.836,0.003
3.8365,0.003
3.837,0.003
3.8375,0.003
3.838,0.003
3.8385,0.0015
3.839,0.003
3.8395,0.003
3.84,0.003
3.8405,0.003
3.841,0.0015
3.8415,0.0015
3.842,0.003
3.8425,0.003
3.843,0.003
3.8435,0.003
3.844,0.003
3.8445,0.003
3.845,0.003
3.8455,0.0015
3.846,0.003
3.8465,0.003
3.847,0.003
3.8475,0.003
3.848,0.003
3.8485,0.0015
3.849,0.003
3.8495,0.003
3.85,0.003
3.8505,0.003
3.851,0.003
3.8515,0.003
3.852,0.003
3.8525,0.0045
3.853,0.003
3.8535,0.003
3.854,0.0045
3.8545,0.003
3.855,0.003
3.8555,0.003
3.856,0.003
3.8565,0.003
3.857,0.003
3.8575,0.003
3.858,0.003
3.8585,0.003
3.859,0.003
3.8595,0.003
3.86,0.003
3.8605,0.003
3.861,0.003
3.8615,0.003
3.862,0.003
3.8625,0.003
3.863,0.003
3.8635,0.003
3.864,0.003
3.8645,0.003
3.865,0.003
3.8655,0.003
3.866,0.003
3.8665,0.003
3.867,0.003
3.8675,0.003
3.868,0.003
3.8685,0.003
3.869,0.003
3.8695,0.003
3.87,0.003
3.8705,0.003
3.871,0.003
3.8715,0.003
3.872,0.003
3.8725,0.003
3.873,0.003
3.8735,0.003
3.874,0.003
3.8745,0.003
3.875,0.003
3.8755,0.003
3.876,0.003
3.8765,0.003
3.877,0.003
3.8775,0.003
3.878,0.003
3.8785,0.003
3.879,0.003
3.8795,0.003
3.88,0.003
3.8805,0.0015
3.881,0.003
3.8815,0.003
3.882,0.003
3.8825,0.003
3.883,0.003
3.8835,0.003
3.884,0.003
3.8845,0.003
3.885,0.003
3.8855,0.003
3.886,0.003
3.8865,0.003
3.887,0.003
3.8875,0.003
3.888,0.003
3.8885,0.003
3.889,0.003
3.8895,0.003
3.89,0.003
3.8905,0.003
3.891,0.003
3.8915,0.003
3.892,0.003
3.8925,0.003
3.893,0.0015
3.8935,0.003
3.894,0.003
3.8945,0.003
3.895,0.003
3.8955,0.0015
3.896,0.003
3.8965,0.003
3.897,0.0015
3.8975,0.003
3.898,0.0015
3.8985,0.003
3.899,0.003
3.8995,0.003
3.9,0.0015
3.9005,0.003
3.901,0.003
3.9015,0.003
3.902,0.003
3.9025,0.003
3.903,0.003
3.9035,0.003
3.904,0.003
3.9045,0.003
3.905,0.003
3.9055,0.003
3.906,0.003
3.9065,0.003
3.907,0.003
3.9075,0.003
3.908,0.003
3.9085,0.003
3.909,0.003
3.9095,0.003
3.91,0.003
3.9105,0.003
3.911,0.003
3.9115,0.003
3.912,0.003
3.9125,0.003
3.913,0.003
3.9135,0.003
3.914,0.0015
3.9145,0.003
3.915,0.003
3.9155,0.003
3.916,0.003
3.9165,0.003
3.917,0.003
3.9175,0.003
3.918,0.003
3.9185,0.003
3.919,0.003
3.9195,0.003
3.92,0.003
3.9205,0.003
3.921,0.003
3.9215,0.0015
3.922,0.003
3.9225,0.003
3.923,0.003
3.9235,0.003
3.924,0.003
3.9245,0.0015
3.925,0.003
3.9255,0.0015
3.926,0.003
3.9265,0.003
3.927,0.003
3.9275,0.003
3.928,0.003
3.9285,0.003
3.929,0.003
3.9295,0.003
3.93,0.003
3.9305,0.003
3.931,0.0045
3.9315,0.0045
3.932,0.0045
3.9325,0.003
3.933,0.003
3.9335,0.003
3.934,0.003
3.9345,0.003
3.935,0.003
3.9355,0.0015
3.936,0.003
3.9365,0.003
3.937,0.0045
3.9375,0.003
3.938,0.003
3.9385,0.003
3.939,0.003
3.9395,0.003
3.94,0.003
3.9405,0.0045
3.941,0.003
3.9415,0.003
3.942,0.003
3.9425,0.0015
3.943,0.0015
3.9435,0.003
3.944,0.003
3.9445,0.003
3.945,0.003
3.9455,0.003
3.946,0.003
3.9465,0.003
3.947,0.003
3.9475,0.003
3.948,0.003
3.9485,0.0015
3.949,0.003
3.9495,0.003
3.95,0.003
3.9505,0.003
3.951,0.003
3.9515,0.0045
3.952,0.003
3.9525,0.003
3.953,0.003
3.9535,0.003
3.954,0.003
3.9545,0.003
3.955,0.003
3.9555,0.003
3.956,0.003
3.9565,0.003
3.957,0.003
3.9575,0.003
3.958,0.003
3.9585,0.003
3.959,0.003
3.9595,0.0045
3.96,0.003
3.9605,0.003
3.961,0.003
3.9615,0.003
3.962,0.003
3.9625,0.003
3.963,0.003
3.9635,0.003
3.964,0.003
3.9645,0.003
3.965,0.003
3.9655,0.0045
3.966,0.003
3.9665,0.003
3.967,0.003
3.9675,0.003
3.968,0.003
3.9685,0.003
3.969,0.003
3.9695,0.003
3.97,0.003
3.9705,0.003
3.971,0.003
3.9715,0.003
3.972,0.003
3.9725,0.003
3.973,0.003
3.9735,0.003
3.974,0.003
3.9745,0.0015
3.975,0.003
3.9755,0.003
3.976,0.003
3.9765,0.003
3.977,0.0015
3.9775,0.003
3.978,0.003
3.9785,0.003
3.979,0.003
3.9795,0.003
3.98,0.0015
3.9805,0.003
3.981,0.003
3.9815,0.003
3.982,0.003
3.9825,0.003
3.983,0.003
3.9835,0.003
3.984,0.003
3.9845,0.003
3.985,0.003
3.9855,0.003
3.986,0.003
3.9865,0.003
3.987,0.003
3.9875,0.003
3.988,0.003
3.9885,0.0015
3.989,0.0015
3.9895,0.0015
3.99,0.003
3.9905,0.003
3.991,0.003
3.9915,0.003
3.992,0.003
3.9925,0.003
3.993,0.003
3.9935,0.003
3.994,0.003
3.9945,0.003
3.995,0.003
3.9955,0.003
3.996,0.0015
3.9965,0.003
3.997,0.003
3.9975,0.003
3.998,0.003
3.9985,0.003
3.999,0.003
3.9995,0.003
4,0.003
4.0005,0.003
4.001,0.003
4.0015,0.003
4.002,0.003
4.0025,0.003
4.003,0.003
4.0035,0.003
4.004,0.003
4.0045,0.003
4.005,0.003
4.0055,0.003
4.006,0.003
4.0065,0.003
4.007,0.003
4.0075,0.003
4.008,0.003
4.0085,0.003
4.009,0.003
4.0095,0.003
4.01,0.003
4.0105,0.003
4.011,0.003
4.0115,0.003
4.012,0.003
4.0125,0.0015
4.013,0.003
4.0135,0.003
4.014,0.003
4.0145,0.003
4.015,0.003
4.0155,0.0015
4.016,0.0015
4.0165,0.003
4.017,0.003
4.0175,0.003
4.018,0.003
4.0185,0.003
4.019,0.003
4.0195,0.003
4.02,0.003
4.0205,0.003
4.021,0.003
4.0215,0.003
4.022,0.003
4.0225,0.003
4.023,0.003
4.0235,0.003
4.024,0.003
4.0245,0.003
4.025,0.003
4.0255,0.003
4.026,0.0015
4.0265,0.003
4.027,0.003
4.0275,0.003
4.028,0.003
4.0285,0.0015
4.029,0.003
4.0295,0.003
4.03,0.003
4.0305,0.0015
4.031,0.003
4.0315,0.003
4.032,0.003
4.0325,0.003
4.033,0.0015
4.0335,0.003
4.034,0.003
4.0345,0.003
4.035,0.003
4.0355,0.003
4.036,0.003
4.0365,0.003
4.037,0.003
4.0375,0.003
4.038,0.003
4.0385,0.003
4.039,0.003
4.0395,0.003
4.04,0.003
4.0405,0.003
4.041,0.003
4.0415,0.003
4.042,0.003
4.0425,0.003
4.043,0.003
4.0435,0.0015
4.044,0.0015
4.0445,0.003
4.045,0.003
4.0455,0.003
4.046,0.003
4.0465,0.003
4.047,0.003
4.0475,0.003
4.048,0.003
4.0485,0.003
4.049,0.003
4.0495,0.003
4.05,0.003
4.0505,0.003
4.051,0.003
4.0515,0.003
4.052,0.0015
4.0525,0.003
4.053,0.003
4.0535,0.003
4.054,0.003
4.0545,0.003
4.055,0.003
4.0555,0.003
4.056,0.003
4.0565,0.003
4.057,0.003
4.0575,0.003
4.058,0.003
4.0585,0.003
4.059,0.003
4.0595,0.003
4.06,0.003
4.0605,0.003
4.061,0.003
4.0615,0.003
4.062,0.003
4.0625,0.003
4.063,0.003
4.0635,0.003
4.064,0.003
4.0645,0.003
4.065,0.003
4.0655,0.003
4.066,0.003
4.0665,0.003
4.067,0.003
4.0675,0.0015
4.068,0.003
4.0685,0.003
4.069,0.003
4.0695,0.003
4.07,0.0015
4.0705,0.003
4.071,0.003
4.0715,0.003
4.072,0.003
4.0725,0.003
4.073,0.003
4.0735,0.003
4.074,0.003
4.0745,0.003
4.075,0.003
4.0755,0.0045
4.076,0.003
4.0765,0.003
4.077,0.003
4.0775,0.003
4.078,0.003
4.0785,0.003
4.079,0.003
4.0795,0.0015
4.08,0.003
4.0805,0.0015
4.081,0.0015
4.0815,0.003
4.082,0.003
4.0825,0.003
4.083,0.003
4.0835,0.003
4.084,0.003
4.0845,0.003
4.085,0.0015
4.0855,0.003
4.086,0.003
4.0865,0.003
4.087,0.003
4.0875,0.003
4.088,0.003
4.0885,0.003
4.089,0.003
4.0895,0.003
4.09,0.003
4.0905,0.003
4.091,0.003
4.0915,0.003
4.092,0.003
4.0925,0.003
4.093,0.003
4.0935,0.003
4.094,0.003
4.0945,0.003
4.095,0.003
4.0955,0.003
4.096,0.003
4.0965,0.003
4.097,0.003
4.0975,0.003
4.098,0.003
4.0985,0.003
4.099,0.003
4.0995,0.003
4.1,0.003
4.1005,0.003
4.101,0.003
4.1015,0.003
4.102,0.003
4.1025,0.003
4.103,0.003
4.1035,0.003
4.104,0.0015
4.1045,0.003
4.105,0.003
4.1055,0.003
4.106,0.003
4.1065,0.003
4.107,0.003
4.1075,0.003
4.108,0.003
4.1085,0.003
4.109,0.003
4.1095,0.003
4.11,0.003
4.1105,0.003
4.111,0.003
4.1115,0.003
4.112,0.003
4.1125,0.0015
4.113,0.003
4.1135,0.003
4.114,0.003
4.1145,0.003
4.115,0.003
4.1155,0.003
4.116,0.0045
4.1165,0.003
4.117,0.003
4.1175,0.003
4.118,0.003
4.1185,0.003
4.119,0.003
4.1195,0.0015
4.12,0.003
4.1205,0.003
4.121,0.003
4.1215,0.0045
4.122,0.003
4.1225,0.003
4.123,0.003
4.1235,0.003
4.124,0.003
4.1245,0.003
4.125,0.003
4.1255,0.003
4.126,0.003
4.1265,0.003
4.127,0.003
4.1275,0.003
4.128,0.003
4.1285,0.003
4.129,0.0045
4.1295,0.003
4.13,0.003
4.1305,0.003
4.131,0.003
4.1315,0.003
4.132,0.0045
4.1325,0.003
4.133,0.0045
4.1335,0.003
4.134,0.003
4.1345,0.003
4.135,0.0045
4.1355,0.003
4.136,0.003
4.1365,0.003
4.137,0.0045
4.1375,0.003
4.138,0.003
4.1385,0.003
4.139,0.003
4.1395,0.003
4.14,0.003
4.1405,0.003
4.141,0.003
4.1415,0.003
4.142,0.003
4.1425,0.0015
4.143,0.003
4.1435,0.003
4.144,0.003
4.1445,0.003
4.145,0.0015
4.1455,0.003
4.146,0.003
4.1465,0.003
4.147,0.003
4.1475,0.003
4.148,0.003
4.1485,0.003
4.149,0.003
4.1495,0.003
4.15,0.003
4.1505,0.003
4.151,0.003
4.1515,0.003
4.152,0.003
4.1525,0.003
4.153,0.0045
4.1535,0.003
4.154,0.003
4.1545,0.003
4.155,0.003
4.1555,0.003
4.156,0.003
4.1565,0.0015
4.157,0.0015
4.1575,0.003
4.158,0.003
4.1585,0.003
4.159,0.003
4.1595,0.003
4.16,0.003
4.1605,0.003
4.161,0.003
4.1615,0.003
4.162,0.0015
4.1625,0.0015
4.163,0.003
4.1635,0.003
4.164,0.003
4.1645,0.0015
4.165,0.003
4.1655,0.003
4.166,0.003
4.1665,0.003
4.167,0.003
4.1675,0.003
4.168,0.003
4.1685,0.003
4.169,0.0045
4.1695,0.0045
4.17,0.003
4.1705,0.003
4.171,0.003
4.1715,0.003
4.172,0.003
4.1725,0.003
4.173,0.003
4.1735,0.003
4.174,0.003
4.1745,0.003
4.175,0.003
4.1755,0.003
4.176,0.003
4.1765,0.003
4.177,0.003
4.1775,0.003
4.178,0.003
4.1785,0.003
4.179,0.003
4.1795,0.003
4.18,0.003
4.1805,0.003
4.181,0.003
4.1815,0.003
4.182,0.0015
4.1825,0.003
4.183,0.003
4.1835,0.003
4.184,0.003
4.1845,0.003
4.185,0.003
4.1855,0.003
4.186,0.003
4.1865,0.003
4.187,0.003
4.1875,0.003
4.188,0.0045
4.1885,0.003
4.189,0.003
4.1895,0.003
4.19,0.003
4.1905,0.003
4.191,0.003
4.1915,0.003
4.192,0.003
4.1925,0.003
4.193,0.003
4.1935,0.003
4.194,0.003
4.1945,0.003
4.195,0.003
4.1955,0.003
4.196,0.003
4.1965,0.003
4.197,0.003
4.1975,0.0015
4.198,0.0015
4.1985,0.0015
4.199,0.0015
4.1995,0.003
4.2,0.003
4.2005,0.003
4.201,0.003
4.2015,0.0015
4.202,0.0015
4.2025,0.003
4.203,0.003
4.2035,0.0015
4.204,0.003
4.2045,0.0015
4.205,0.003
4.2055,0.003
4.206,0.003
4.2065,0.003
4.207,0.003
4.2075,0.003
4.208,0.0015
4.2085,0.003
4.209,0.003
4.2095,0.003
4.21,0.003
4.2105,0.003
4.211,0.003
4.2115,0.003
4.212,0.003
4.2125,0.0045
4.213,0.003
4.2135,0.003
4.214,0.003
4.2145,0.003
4.215,0.003
4.2155,0.003
4.216,0.003
4.2165,0.003
4.217,0.003
4.2175,0.003
4.218,0.003
4.2185,0.003
4.219,0.003
4.2195,0.003
4.22,0.003
4.2205,0.003
4.221,0.003
4.2215,0.003
4.222,0.003
4.2225,0.0015
4.223,0.003
4.2235,0.003
4.224,0.003
4.2245,0.003
4.225,0.003
4.2255,0.0015
4.226,0.003
4.2265,0.003
4.227,0.003
4.2275,0.003
4.228,0.003
4.2285,0.003
4.229,0.003
4.2295,0.003
4.23,0.003
4.2305,0.0015
4.231,0.003
4.2315,0.003
4.232,0.0015
4.2325,0.003
4.233,0.003
4.2335,0.003
4.234,0.003
4.2345,0.003
4.235,0.003
4.2355,0.003
4.236,0.003
4.2365,0.003
4.237,0.003
4.2375,0.003
4.238,0.003
4.2385,0.003
4.239,0.003
4.2395,0.003
4.24,0.003
4.2405,0.003
4.241,0.003
4.2415,0.003
4.242,0.003
4.2425,0.003
4.243,0.003
4.2435,0.003
4.244,0.003
4.2445,0.003
4.245,0.0015
4.2455,0.003
4.246,0.003
4.2465,0.003
4.247,0.003
4.2475,0.003
4.248,0.003
4.2485,0.003
4.249,0.003
4.2495,0.003
4.25,0.003
4.2505,0.003
4.251,0.003
4.2515,0.003
4.252,0.003
4.2525,0.003
4.253,0.003
4.2535,0.003
4.254,0.003
4.2545,0.003
4.255,0.003
4.2555,0.0045
4.256,0.003
4.2565,0.0045
4.257,0.003
4.2575,0.003
4.258,0.003
4.2585,0.003
4.259,0.003
4.2595,0.003
4.26,0.0015
4.2605,0.003
4.261,0.003
4.2615,0.003
4.262,0.003
4.2625,0.003
4.263,0.003
4.2635,0.003
4.264,0.003
4.2645,0.003
4.265,0.003
4.2655,0.0015
4.266,0.003
4.2665,0.003
4.267,0.003
4.2675,0.003
4.268,0.003
4.2685,0.003
4.269,0.003
4.2695,0.003
4.27,0.003
4.2705,0.003
4.271,0.003
4.2715,0.003
4.272,0.003
4.2725,0.003
4.273,0.003
4.2735,0.003
4.274,0.003
4.2745,0.003
4.275,0.0015
4.2755,0.003
4.276,0.003
4.2765,0.003
4.277,0.003
4.2775,0.003
4.278,0.003
4.2785,0.003
4.279,0.003
4.2795,0.003
4.28,0.003
4.2805,0.003
4.281,0.003
4.2815,0.003
4.282,0.003
4.2825,0.003
4.283,0.003
4.2835,0.003
4.284,0.003
4.2845,0.003
4.285,0.0015
4.2855,0.003
4.286,0.003
4.2865,0.003
4.287,0.003
4.2875,0.003
4.288,0.003
4.2885,0.0015
4.289,0.003
4.2895,0.003
4.29,0.003
4.2905,0.003
4.291,0.003
4.2915,0.0045
4.292,0.003
4.2925,0.003
4.293,0.003
4.2935,0.003
4.294,0.003
4.2945,0.003
4.295,0.003
4.2955,0.003
4.296,0.003
4.2965,0.003
4.297,0.003
4.2975,0.0015
4.298,0.0015
4.2985,0.003
4.299,0.003
4.2995,0.003
4.3,0.0015
4.3005,0.003
4.301,0.003
4.3015,0.003
4.302,0.0015
4.3025,0.003
4.303,0.003
4.3035,0.003
4.304,0.003
4.3045,0.003
4.305,0.0045
4.3055,0.003
4.306,0.003
4.3065,0.003
4.307,0.003
4.3075,0.003
4.308,0.003
4.3085,0.003
4.309,0.003
4.3095,0.003
4.31,0.003
4.3105,0.003
4.311,0.003
4.3115,0.003
4.312,0.003
4.3125,0.003
4.313,0.003
4.3135,0.003
4.314,0.003
4.3145,0.003
4.315,0.003
4.3155,0.003
4.316,0.003
4.3165,0.0015
4.317,0.003
4.3175,0.003
4.318,0.003
4.3185,0.003
4.319,0.003
4.3195,0.003
4.32,0.003
4.3205,0.003
4.321,0.003
4.3215,0.003
4.322,0.003
4.3225,0.003
4.323,0.003
4.3235,0.003
4.324,0.003
4.3245,0.003
4.325,0.0015
4.3255,0.003
4.326,0.003
4.3265,0.003
4.327,0.003
4.3275,0.003
4.328,0.003
4.3285,0.003
4.329,0.003
4.3295,0.003
4.33,0.003
4.3305,0.003
4.331,0.003
4.3315,0.003
4.332,0.003
4.3325,0.003
4.333,0.003
4.3335,0.0015
4.334,0.003
4.3345,0.003
4.335,0.003
4.3355,0.003
4.336,0.003
4.3365,0.0015
4.337,0.003
4.3375,0.003
4.338,0.003
4.3385,0.003
4.339,0.003
4.3395,0.003
4.34,0.003
4.3405,0.003
4.341,0.0015
4.3415,0.003
4.342,0.003
4.3425,0.003
4.343,0.003
4.3435,0.003
4.344,0.003
4.3445,0.003
4.345,0.003
4.3455,0.003
4.346,0.003
4.3465,0.0015
4.347,0.003
4.3475,0.003
4.348,0.003
4.3485,0.003
4.349,0.003
4.3495,0.003
4.35,0.003
4.3505,0.003
4.351,0.003
4.3515,0.003
4.352,0.003
4.3525,0.0045
4.353,0.003
4.3535,0.003
4.354,0.003
4.3545,0.003
4.355,0.003
4.3555,0.0045
4.356,0.003
4.3565,0.003
4.357,0.003
4.3575,0.003
4.358,0.003
4.3585,0.003
4.359,0.003
4.3595,0.003
4.36,0.0045
4.3605,0.003
4.361,0.0015
4.3615,0.0015
4.362,0.003
4.3625,0.003
4.363,0.003
4.3635,0.0015
4.364,0.003
4.3645,0.003
4.365,0.003
4.3655,0.003
4.366,0.003
4.3665,0.003
4.367,0.003
4.3675,0.003
4.368,0.0015
4.3685,0.003
4.369,0.003
4.3695,0.003
4.37,0.003
4.3705,0.003
4.371,0.003
4.3715,0.003
4.372,0.003
4.3725,0.0015
4.373,0.003
4.3735,0.0015
4.374,0.003
4.3745,0.003
4.375,0.003
4.3755,0.003
4.376,0.003
4.3765,0.003
4.377,0.003
4.3775,0.003
4.378,0.003
4.3785,0.0015
4.379,0.003
4.3795,0.0015
4.38,0.003
4.3805,0.003
4.381,0.003
4.3815,0.003
4.382,0.003
4.3825,0.003
4.383,0.003
4.3835,0.003
4.384,0.003
4.3845,0.003
4.385,0.003
4.3855,0.003
4.386,0.003
4.3865,0.003
4.387,0.003
4.3875,0.003
4.388,0.003
4.3885,0.0015
4.389,0.003
4.3895,0.003
4.39,0.003
4.3905,0.003
4.391,0.003
4.3915,0.003
4.392,0.003
4.3925,0.003
4.393,0.003
4.3935,0.003
4.394,0.003
4.3945,0.003
4.395,0.003
4.3955,0.003
4.396,0.003
4.3965,0.003
4.397,0.003
4.3975,0.003
4.398,0.0045
4.3985,0.0045
4.399,0.003
4.3995,0.003
4.4,0.003
4.4005,0.003
4.401,0.003
4.4015,0.003
4.402,0.003
4.4025,0.0015
4.403,0.003
4.4035,0.003
4.404,0.003
4.4045,0.003
4.405,0.0015
4.4055,0.003
4.406,0.003
4.4065,0.003
4.407,0.003
4.4075,0.003
4.408,0.003
4.4085,0.003
4.409,0.003
4.4095,0.003
4.41,0.003
4.4105,0.003
4.411,0.003
4.4115,0.003
4.412,0.003
4.4125,0.003
4.413,0.003
4.4135,0.003
4.414,0.003
4.4145,0.003
4.415,0.003
4.4155,0.003
4.416,0.003
4.4165,0.003
4.417,0.003
4.4175,0.003
4.418,0.003
4.4185,0.003
4.419,0.003
4.4195,0.003
4.42,0.003
4.4205,0.003
4.421,0.003
4.4215,0.003
4.422,0.003
4.4225,0.003
4.423,0.003
4.4235,0.003
4.424,0.003
4.4245,0.003
4.425,0.003
4.4255,0.003
4.426,0.003
4.4265,0.003
4.427,0.003
4.4275,0.003
4.428,0.003
4.4285,0.003
4.429,0.003
4.4295,0.003
4.43,0.003
4.4305,0.003
4.431,0.003
4.4315,0.003
4.432,0.003
4.4325,0.003
4.433,0.003
4.4335,0.003
4.434,0.003
4.4345,0.003
4.435,0.003
4.4355,0.003
4.436,0.0015
4.4365,0.003
4.437,0.003
4.4375,0.003
4.438,0.003
4.4385,0.003
4.439,0.003
4.4395,0.003
4.44,0.0015
4.4405,0.003
4.441,0.003
4.4415,0.003
4.442,0.0015
4.4425,0.003
4.443,0.003
4.4435,0.003
4.444,0.003
4.4445,0.003
4.445,0.003
4.4455,0.003
4.446,0.003
4.4465,0.003
4.447,0.003
4.4475,0.003
4.448,0.003
4.4485,0.003
4.449,0.003
4.4495,0.003
4.45,0.003
4.4505,0.003
4.451,0.003
4.4515,0.0015
4.452,0.003
4.4525,0.003
4.453,0.003
4.4535,0.003
4.454,0.003
4.4545,0.003
4.455,0.003
4.4555,0.003
4.456,0.003
4.4565,0.003
4.457,0.003
4.4575,0.003
4.458,0.003
4.4585,0.003
4.459,0.003
4.4595,0.003
4.46,0.003
4.4605,0.003
4.461,0.003
4.4615,0.0015
4.462,0.003
4.4625,0.003
4.463,0.003
4.4635,0.003
4.464,0.003
4.4645,0.003
4.465,0.0045
4.4655,0.003
4.466,0.003
4.4665,0.003
4.467,0.003
4.4675,0.003
4.468,0.003
4.4685,0.003
4.469,0.003
4.4695,0.003
4.47,0.003
4.4705,0.003
4.471,0.003
4.4715,0.003
4.472,0.003
4.4725,0.0045
4.473,0.003
4.4735,0.003
4.474,0.003
4.4745,0.003
4.475,0.003
4.4755,0.003
4.476,0.003
4.4765,0.003
4.477,0.003
4.4775,0.003
4.478,0.003
4.4785,0.003
4.479,0.003
4.4795,0.003
4.48,0.003
4.4805,0.003
4.481,0.003
4.4815,0.003
4.482,0.003
4.4825,0.003
4.483,0.003
4.4835,0.003
4.484,0.0045
4.4845,0.003
4.485,0.003
4.4855,0.003
4.486,0.003
4.4865,0.003
4.487,0.003
4.4875,0.003
4.488,0.003
4.4885,0.003
4.489,0.003
4.4895,0.003
4.49,0.003
4.4905,0.003
4.491,0.003
4.4915,0.003
4.492,0.003
4.4925,0.003
4.493,0.003
4.4935,0.0015
4.494,0.003
4.4945,0.003
4.495,0.003
4.4955,0.003
4.496,0.003
4.4965,0.003
4.497,0.003
4.4975,0.003
4.498,0.003
4.4985,0.0045
4.499,0.003
4.4995,0.003
4.5,0.003
4.5005,0.003
4.501,0.003
4.5015,0.003
4.502,0.003
4.5025,0.003
4.503,0.003
4.5035,0.003
4.504,0.0045
4.5045,0.003
4.505,0.003
4.5055,0.003
4.506,0.003
4.5065,0.003
4.507,0.003
4.5075,0.003
4.508,0.003
4.5085,0.003
4.509,0.0015
4.5095,0.003
4.51,0.003
4.5105,0.003
4.511,0.003
4.5115,0.003
4.512,0.0045
4.5125,0.003
4.513,0.003
4.5135,0.003
4.514,0.0015
4.5145,0.0045
4.515,0.003
4.5155,0.003
4.516,0.003
4.5165,0.003
4.517,0.003
4.5175,0.003
4.518,0.0015
4.5185,0.003
4.519,0.003
4.5195,0.003
4.52,0.003
4.5205,0.003
4.521,0.003
4.5215,0.003
4.522,0.0015
4.5225,0.003
4.523,0.003
4.5235,0.003
4.524,0.003
4.5245,0.0015
4.525,0.003
4.5255,0.003
4.526,0.003
4.5265,0.003
4.527,0.003
4.5275,0.003
4.528,0.003
4.5285,0.003
4.529,0.003
4.5295,0.003
4.53,0.003
4.5305,0.003
4.531,0.0015
4.5315,0.003
4.532,0.003
4.5325,0.003
4.533,0.003
4.5335,0.003
4.534,0.003
4.5345,0.003
4.535,0.003
4.5355,0.0045
4.536,0.003
4.5365,0.003
4.537,0.003
4.5375,0.003
4.538,0.0015
4.5385,0.003
4.539,0.003
4.5395,0.003
4.54,0.003
4.5405,0.003
4.541,0.003
4.5415,0.003
4.542,0.003
4.5425,0.003
4.543,0.003
4.5435,0.003
4.544,0.003
4.5445,0.003
4.545,0.003
4.5455,0.003
4.546,0.003
4.5465,0.003
4.547,0.003
4.5475,0.003
4.548,0.003
4.5485,0.003
4.549,0.003
4.5495,0.003
4.55,0.003
4.5505,0.003
4.551,0.003
4.5515,0.0045
4.552,0.003
4.5525,0.003
4.553,0.003
4.5535,0.003
4.554,0.003
4.5545,0.003
4.555,0.003
4.5555,0.003
4.556,0.003
4.5565,0.003
4.557,0.003
4.5575,0.0045
4.558,0.003
4.5585,0.003
4.559,0.003
4.5595,0.003
4.56,0.003
4.5605,0.003
4.561,0.003
4.5615,0.003
4.562,0.003
4.5625,0.003
4.563,0.003
4.5635,0.003
4.564,0.0045
4.5645,0.003
4.565,0.003
4.5655,0.003
4.566,0.003
4.5665,0.003
4.567,0.003
4.5675,0.0045
4.568,0.003
4.5685,0.003
4.569,0.003
4.5695,0.003
4.57,0.0045
4.5705,0.003
4.571,0.003
4.5715,0.003
4.572,0.003
4.5725,0.003
4.573,0.003
4.5735,0.003
4.574,0.003
4.5745,0.0015
4.575,0.0015
4.5755,0.003
4.576,0.003
4.5765,0.003
4.577,0.0015
4.5775,0.003
4.578,0.003
4.5785,0.003
4.579,0.003
4.5795,0.003
4.58,0.0015
4.5805,0.003
4.581,0.003
4.5815,0.003
4.582,0.003
4.5825,0.0045
4.583,0.003
4.5835,0.0015
4.584,0.003
4.5845,0.003
4.585,0.003
4.5855,0.0015
4.586,0.003
4.5865,0.003
4.587,0.003
4.5875,0.003
4.588,0.003
4.5885,0.003
4.589,0.003
4.5895,0.003
4.59,0.003
4.5905,0.003
4.591,0.003
4.5915,0.003
4.592,0.003
4.5925,0.003
4.593,0.003
4.5935,0.0015
4.594,0.003
4.5945,0.003
4.595,0.003
4.5955,0.003
4.596,0.003
4.5965,0.003
4.597,0.003
4.5975,0.003
4.598,0.003
4.5985,0.003
4.599,0.003
4.5995,0.003
4.6,0.003
4.6005,0.003
4.601,0.0045
4.6015,0.003
4.602,0.003
4.6025,0.003
4.603,0.003
4.6035,0.003
4.604,0.003
4.6045,0.003
4.605,0.0045
4.6055,0.003
4.606,0.003
4.6065,0.003
4.607,0.003
4.6075,0.003
4.608,0.003
4.6085,0.003
4.609,0.003
4.6095,0.003
4.61,0.003
4.6105,0.003
4.611,0.003
4.6115,0.003
4.612,0.003
4.6125,0.003
4.613,0.003
4.6135,0.003
4.614,0.0045
4.6145,0.003
4.615,0.003
4.6155,0.003
4.616,0.003
4.6165,0.003
4.617,0.003
4.6175,0.0015
4.618,0.003
4.6185,0.003
4.619,0.003
4.6195,0.003
4.62,0.003
4.6205,0.003
4.621,0.003
4.6215,0.003
4.622,0.003
4.6225,0.003
4.623,0.003
4.6235,0.003
4.624,0.003
4.6245,0.003
4.625,0.003
4.6255,0.003
4.626,0.0015
4.6265,0.003
4.627,0.003
4.6275,0.003
4.628,0.003
4.6285,0.003
4.629,0.003
4.6295,0.0045
4.63,0.003
4.6305,0.003
4.631,0.0045
4.6315,0.003
4.632,0.0015
4.6325,0.003
4.633,0.003
4.6335,0.003
4.634,0.003
4.6345,0.0015
4.635,0.003
4.6355,0.003
4.636,0.003
4.6365,0.003
4.637,0.003
4.6375,0.003
4.638,0.0015
4.6385,0.003
4.639,0.003
4.6395,0.0015
4.64,0.003
4.6405,0.003
4.641,0.003
4.6415,0.003
4.642,0.003
4.6425,0.003
4.643,0.003
4.6435,0.003
4.644,0.003
4.6445,0.003
4.645,0.0015
4.6455,0.003
4.646,0.003
4.6465,0.003
4.647,0.003
4.6475,0.003
4.648,0.003
4.6485,0.003
4.649,0.003
4.6495,0.003
4.65,0.003
4.6505,0.003
4.651,0.003
4.6515,0.003
4.652,0.003
4.6525,0.003
4.653,0.003
4.6535,0.003
4.654,0.003
4.6545,0.003
4.655,0.003
4.6555,0.003
4.656,0.003
4.6565,0.003
4.657,0.003
4.6575,0.003
4.658,0.003
4.6585,0.003
4.659,0.003
4.6595,0.003
4.66,0.003
4.6605,0.003
4.661,0.003
4.6615,0.003
4.662,0.003
4.6625,0.003
4.663,0.003
4.6635,0.003
4.664,0.003
4.6645,0.003
4.665,0.003
4.6655,0.003
4.666,0.003
4.6665,0.003
4.667,0.003
4.6675,0.0015
4.668,0.003
4.6685,0.0015
4.669,0.003
4.6695,0.003
4.67,0.003
4.6705,0.0045
4.671,0.0045
4.6715,0.0045
4.672,0.003
4.6725,0.003
4.673,0.003
4.6735,0.003
4.674,0.003
4.6745,0.0015
4.675,0.0045
4.6755,0.003
4.676,0.003
4.6765,0.003
4.677,0.003
4.6775,0.003
4.678,0.003
4.6785,0.003
4.679,0.003
4.6795,0.003
4.68,0.003
4.6805,0.003
4.681,0.0045
4.6815,0.003
4.682,0.003
4.6825,0.003
4.683,0.003
4.6835,0.003
4.684,0.003
4.6845,0.003
4.685,0.003
4.6855,0.003
4.686,0.003
4.6865,0.003
4.687,0.003
4.6875,0.003
4.688,0.003
4.6885,0.003
4.689,0.003
4.6895,0.003
4.69,0.003
4.6905,0.003
4.691,0.003
4.6915,0.003
4.692,0.003
4.6925,0.003
4.693,0.003
4.6935,0.003
4.694,0.003
4.6945,0.003
4.695,0.003
4.6955,0.003
4.696,0.003
4.6965,0.003
4.697,0.003
4.6975,0.003
4.698,0.003
4.6985,0.003
4.699,0.003
4.6995,0.003
4.7,0.003
4.7005,0.003
4.701,0.003
4.7015,0.003
4.702,0.003
4.7025,0.0015
4.703,0.003
4.7035,0.003
4.704,0.003
4.7045,0.003
4.705,0.003
4.7055,0.003
4.706,0.003
4.7065,0.0015
4.707,0.003
4.7075,0.003
4.708,0.003
4.7085,0.0015
4.709,0.0015
4.7095,0.003
4.71,0.003
4.7105,0.003
4.711,0.0015
4.7115,0.003
4.712,0.003
4.7125,0.003
4.713,0.003
4.7135,0.003
4.714,0.003
4.7145,0.003
4.715,0.003
4.7155,0.003
4.716,0.003
4.7165,0.003
4.717,0.003
4.7175,0.003
4.718,0.003
4.7185,0.003
4.719,0.003
4.7195,0.003
4.72,0.003
4.7205,0.0015
4.721,0.003
4.7215,0.003
4.722,0.003
4.7225,0.003
4.723,0.003
4.7235,0.003
4.724,0.003
4.7245,0.003
4.725,0.003
4.7255,0.003
4.726,0.003
4.7265,0.003
4.727,0.003
4.7275,0.003
4.728,0.003
4.7285,0.003
4.729,0.003
4.7295,0.003
4.73,0.003
4.7305,0.003
4.731,0.003
4.7315,0.003
4.732,0.003
4.7325,0.003
4.733,0.003
4.7335,0.003
4.734,0.003
4.7345,0.003
4.735,0.0045
4.7355,0.003
4.736,0.003
4.7365,0.003
4.737,0.003
4.7375,0.003
4.738,0.003
4.7385,0.003
4.739,0.003
4.7395,0.003
4.74,0.003
4.7405,0.003
4.741,0.003
4.7415,0.003
4.742,0.003
4.7425,0.003
4.743,0.003
4.7435,0.003
4.744,0.003
4.7445,0.003
4.745,0.0045
4.7455,0.0045
4.746,0.003
4.7465,0.003
4.747,0.003
4.7475,0.003
4.748,0.003
4.7485,0.0015
4.749,0.003
4.7495,0.0045
4.75,0.0045
4.7505,0.003
4.751,0.003
4.7515,0.003
4.752,0.003
4.7525,0.003
4.753,0.0015
4.7535,0.003
4.754,0.003
4.7545,0.0015
4.755,0.003
4.7555,0.003
4.756,0.003
4.7565,0.003
4.757,0.003
4.7575,0.003
4.758,0.003
4.7585,0.003
4.759,0.003
4.7595,0.0015
4.76,0.003
4.7605,0.003
4.761,0.003
4.7615,0.003
4.762,0.003
4.7625,0.003
4.763,0.0015
4.7635,0.003
4.764,0.003
4.7645,0.003
4.765,0.003
4.7655,0.003
4.766,0.003
4.7665,0.003
4.767,0.003
4.7675,0.003
4.768,0.003
4.7685,0.003
4.769,0.003
4.7695,0.003
4.77,0.003
4.7705,0.003
4.771,0.003
4.7715,0.003
4.772,0.0015
4.7725,0.003
4.773,0.003
4.7735,0.003
4.774,0.003
4.7745,0.003
4.775,0.003
4.7755,0.003
4.776,0.003
4.7765,0.003
4.777,0.003
4.7775,0.003
4.778,0.0045
4.7785,0.003
4.779,0.003
4.7795,0.003
4.78,0.003
4.7805,0.003
4.781,0.0015
4.7815,0.003
4.782,0.003
4.7825,0.003
4.783,0.003
4.7835,0.003
4.784,0.003
4.7845,0.003
4.785,0.0015
4.7855,0.003
4.786,0.003
4.7865,0.003
4.787,0.003
4.7875,0.003
4.788,0.003
4.7885,0.003
4.789,0.003
4.7895,0.003
4.79,0.003
4.7905,0.003
4.791,0.003
4.7915,0.0045
4.792,0.003
4.7925,0.003
4.793,0.003
4.7935,0.003
4.794,0.003
4.7945,0.0045
4.795,0.003
4.7955,0.003
4.796,0.003
4.7965,0.003
4.797,0.003
4.7975,0.003
4.798,0.003
4.7985,0.003
4.799,0.003
4.7995,0.003
4.8,0.003
4.8005,0.003
4.801,0.003
4.8015,0.003
4.802,0.003
4.8025,0.003
4.803,0.0015
4.8035,0.003
4.804,0.003
4.8045,0.003
4.805,0.003
4.8055,0.003
4.806,0.003
4.8065,0.003
4.807,0.003
4.8075,0.003
4.808,0.003
4.8085,0.003
4.809,0.003
4.8095,0.003
4.81,0.003
4.8105,0.003
4.811,0.003
4.8115,0.003
4.812,0.003
4.8125,0.003
4.813,0.003
4.8135,0.003
4.814,0.003
4.8145,0.003
4.815,0.0045
4.8155,0.003
4.816,0.003
4.8165,0.003
4.817,0.003
4.8175,0.003
4.818,0.003
4.8185,0.003
4.819,0.003
4.8195,0.003
4.82,0.0015
4.8205,0.003
4.821,0.003
4.8215,0.0015
4.822,0.003
4.8225,0.003
4.823,0.003
4.8235,0.003
4.824,0.003
4.8245,0.0015
4.825,0.003
4.8255,0.003
4.826,0.003
4.8265,0.003
4.827,0.003
4.8275,0.003
4.828,0.003
4.8285,0.003
4.829,0.003
4.8295,0.003
4.83,0.003
4.8305,0.003
4.831,0.003
4.8315,0.003
4.832,0.0045
4.8325,0.003
4.833,0.003
4.8335,0.003
4.834,0.003
4.8345,0.003
4.835,0.003
4.8355,0.003
4.836,0.003
4.8365,0.003
4.837,0.003
4.8375,0.003
4.838,0.003
4.8385,0.003
4.839,0.003
4.8395,0.003
4.84,0.003
4.8405,0.003
4.841,0.003
4.8415,0.003
4.842,0.003
4.8425,0.003
4.843,0.003
4.8435,0.003
4.844,0.003
4.8445,0.003
4.845,0.003
4.8455,0.0015
4.846,0.003
4.8465,0.003
4.847,0.003
4.8475,0.003
4.848,0.003
4.8485,0.003
4.849,0.003
4.8495,0.003
4.85,0.003
4.8505,0.003
4.851,0.003
4.8515,0.003
4.852,0.003
4.8525,0.003
4.853,0.003
4.8535,0.003
4.854,0.0045
4.8545,0.003
4.855,0.003
4.8555,0.003
4.856,0.003
4.8565,0.003
4.857,0.003
4.8575,0.003
4.858,0.003
4.8585,0.0045
4.859,0.003
4.8595,0.003
4.86,0.003
4.8605,0.003
4.861,0.003
4.8615,0.003
4.862,0.003
4.8625,0.003
4.863,0.003
4.8635,0.0015
4.864,0.003
4.8645,0.003
4.865,0.0015
4.8655,0.003
4.866,0.003
4.8665,0.003
4.867,0.003
4.8675,0.003
4.868,0.003
4.8685,0.003
4.869,0.003
4.8695,0.003
4.87,0.003
4.8705,0.003
4.871,0.003
4.8715,0.003
4.872,0.003
4.8725,0.003
4.873,0.003
4.8735,0.003
4.874,0.0015
4.8745,0.0045
4.875,0.003
4.8755,0.003
4.876,0.003
4.8765,0.003
4.877,0.003
4.8775,0.0045
4.878,0.003
4.8785,0.003
4.879,0.003
4.8795,0.003
4.88,0.003
4.8805,0.003
4.881,0.003
4.8815,0.003
4.882,0.003
4.8825,0.0015
4.883,0.003
4.8835,0.003
4.884,0.0045
4.8845,0.003
4.885,0.003
4.8855,0.0015
4.886,0.003
4.8865,0.003
4.887,0.003
4.8875,0.003
4.888,0.003
4.8885,0.003
4.889,0.003
4.8895,0.003
4.89,0.003
4.8905,0.003
4.891,0.003
4.8915,0.003
4.892,0.003
4.8925,0.003
4.893,0.003
4.8935,0.003
4.894,0.003
4.8945,0.003
4.895,0.003
4.8955,0.003
4.896,0.003
4.8965,0.003
4.897,0.003
4.8975,0.003
4.898,0.003
4.8985,0.003
4.899,0.0045
4.8995,0.003
4.9,0.003
4.9005,0.003
4.901,0.003
4.9015,0.003
4.902,0.0015
4.9025,0.003
4.903,0.003
4.9035,0.003
4.904,0.0045
4.9045,0.003
4.905,0.003
4.9055,0.003
4.906,0.003
4.9065,0.003
4.907,0.003
4.9075,0.003
4.908,0.003
4.9085,0.003
4.909,0.003
4.9095,0.003
4.91,0.003
4.9105,0.003
4.911,0.0015
4.9115,0.003
4.912,0.003
4.9125,0.003
4.913,0.003
4.9135,0.0015
4.914,0.003
4.9145,0.003
4.915,0.003
4.9155,0.003
4.916,0.0015
4.9165,0.0015
4.917,0.003
4.9175,0.003
4.918,0.003
4.9185,0.003
4.919,0.003
4.9195,0.0015
4.92,0.003
4.9205,0.003
4.921,0.003
4.9215,0.003
4.922,0.003
4.9225,0.003
4.923,0.003
4.9235,0.003
4.924,0.003
4.9245,0.003
4.925,0.003
4.9255,0.003
4.926,0.0045
4.9265,0.003
4.927,0.003
4.9275,0.0015
4.928,0.003
4.9285,0.003
4.929,0.0015
4.9295,0.003
4.93,0.0015
4.9305,0.003
4.931,0.003
4.9315,0.0045
4.932,0.003
4.9325,0.003
4.933,0.003
4.9335,0.003
4.934,0.003
4.9345,0.003
4.935,0.003
4.9355,0.003
4.936,0.003
4.9365,0.003
4.937,0.003
4.9375,0.003
4.938,0.003
4.9385,0.003
4.939,0.0015
4.9395,0.0015
4.94,0.003
4.9405,0.003
4.941,0.003
4.9415,0.003
4.942,0.003
4.9425,0.0015
4.943,0.003
4.9435,0.0015
4.944,0.003
4.9445,0.003
4.945,0.003
4.9455,0.003
4.946,0.003
4.9465,0.003
4.947,0.003
4.9475,0.003
4.948,0.003
4.9485,0.003
4.949,0.0045
4.9495,0.003
4.95,0.003
4.9505,0.003
4.951,0.003
4.9515,0.003
4.952,0.003
4.9525,0.003
4.953,0.003
4.9535,0.003
4.954,0.003
4.9545,0.003
4.955,0.003
4.9555,0.003
4.956,0.003
4.9565,0.003
4.957,0.003
4.9575,0.003
4.958,0.003
4.9585,0.003
4.959,0.003
4.9595,0.003
4.96,0.003
4.9605,0.0015
4.961,0.0015
4.9615,0.003
4.962,0.003
4.9625,0.003
4.963,0.003
4.9635,0.003
4.964,0.003
4.9645,0.003
4.965,0.003
4.9655,0.003
4.966,0.003
4.9665,0.003
4.967,0.003
4.9675,0.003
4.968,0.0045
4.9685,0.003
4.969,0.0015
4.9695,0.003
4.97,0.003
4.9705,0.003
4.971,0.003
4.9715,0.003
4.972,0.003
4.9725,0.0045
4.973,0.003
4.9735,0.003
4.974,0.003
4.9745,0.003
4.975,0.003
4.9755,0.003
4.976,0.0015
4.9765,0.003
4.977,0.003
4.9775,0.003
4.978,0.0015
4.9785,0.003
4.979,0.003
4.9795,0.003
4.98,0.0045
4.9805,0.003
4.981,0.0015
4.9815,0.0045
4.982,0.003
4.9825,0.003
4.983,0.003
4.9835,0.003
4.984,0.003
4.9845,0.003
4.985,0.003
4.9855,0.003
4.986,0.003
4.9865,0.003
4.987,0.003
4.9875,0.003
4.988,0.003
4.9885,0.003
4.989,0.003
4.9895,0.003
4.99,0.0015
4.9905,0.003
4.991,0.0045
4.9915,0.003
4.992,0.003
4.9925,0.003
4.993,0.003
4.9935,0.003
4.994,0.003
4.9945,0.003
4.995,0.003
4.9955,0.003
4.996,0.003
4.9965,0.003
4.997,0.003
4.9975,0.003
4.998,0.003
4.9985,0.003
4.999,0.003
4.9995,0.0015
5,0.0015
